onset	duration	startTime	stopTime	eventIdentifier	trial_type	trial_number	block_number	is_practice	fixation_color	cue_side	aoi_correct	aoi_incorrect
0.151	6.0	2175691	2181724	ShowFixation	ANTI	1	1	True	red	460	[405 885 405 675]	[1035 1515  405  675]
6.184	0.2	2181724	2181964	BlankScreen	ANTI	1	1	True	red	460	[405 885 405 675]	[1035 1515  405  675]
6.424	1.0	2181964	2183005	ELCue	ANTI	1	1	True	red	460	[405 885 405 675]	[1035 1515  405  675]
7.883	6.0	2183423	2190049	ShowFixation	ANTI	2	1	True	red	600	[ 90 570 405 675]	[1350 1830  405  675]
14.509	0.2	2190049	2190288	BlankScreen	ANTI	2	1	True	red	600	[ 90 570 405 675]	[1350 1830  405  675]
14.748	1.0	2190288	2191326	ELCue	ANTI	2	1	True	red	600	[ 90 570 405 675]	[1350 1830  405  675]
16.19	6.0	2191730	2198341	ShowFixation	VGS	3	1	True	lime	180	[405 885 405 675]	[1035 1515  405  675]
22.801	0.2	2198341	2198580	BlankScreen	VGS	3	1	True	lime	180	[405 885 405 675]	[1035 1515  405  675]
23.04	1.0	2198580	2199618	ELCue	VGS	3	1	True	lime	180	[405 885 405 675]	[1035 1515  405  675]
24.481	2.0	2200021	2202632	ShowFixation	ANTI	4	1	True	red	600	[ 90 570 405 675]	[1350 1830  405  675]
27.092	0.2	2202632	2202851	BlankScreen	ANTI	4	1	True	red	600	[ 90 570 405 675]	[1350 1830  405  675]
27.311	1.0	2202851	2203872	ELCue	ANTI	4	1	True	red	600	[ 90 570 405 675]	[1350 1830  405  675]
28.734	2.0	2204274	2206903	ShowFixation	VGS	5	1	True	lime	600	[1350 1830  405  675]	[ 90 570 405 675]
31.363	0.2	2206903	2207138	BlankScreen	VGS	5	1	True	lime	600	[1350 1830  405  675]	[ 90 570 405 675]
31.598	1.0	2207138	2208179	ELCue	VGS	5	1	True	lime	600	[1350 1830  405  675]	[ 90 570 405 675]
33.057	2.0	2208597	2211225	ShowFixation	VGS	6	1	True	lime	460	[1035 1515  405  675]	[405 885 405 675]
35.685	0.2	2211225	2211460	BlankScreen	VGS	6	1	True	lime	460	[1035 1515  405  675]	[405 885 405 675]
35.92	1.0	2211460	2212500	ELCue	VGS	6	1	True	lime	460	[1035 1515  405  675]	[405 885 405 675]
37.383	6.0	2212923	2219546	ShowFixation	VGS	7	1	True	lime	40	[ 90 570 405 675]	[1350 1830  405  675]
44.006	0.2	2219546	2219785	BlankScreen	VGS	7	1	True	lime	40	[ 90 570 405 675]	[1350 1830  405  675]
44.245	1.0	2219785	2220825	ELCue	VGS	7	1	True	lime	40	[ 90 570 405 675]	[1350 1830  405  675]
45.703	2.0	2221243	2223854	ShowFixation	VGS	8	1	True	lime	180	[405 885 405 675]	[1035 1515  405  675]
48.314	0.2	2223854	2224073	BlankScreen	VGS	8	1	True	lime	180	[405 885 405 675]	[1035 1515  405  675]
48.533	1.0	2224073	2225096	ELCue	VGS	8	1	True	lime	180	[405 885 405 675]	[1035 1515  405  675]
49.976	6.0	2225516	2232142	ShowFixation	VGS	9	1	True	lime	460	[1035 1515  405  675]	[405 885 405 675]
56.602	0.2	2232142	2232381	BlankScreen	VGS	9	1	True	lime	460	[1035 1515  405  675]	[405 885 405 675]
56.841	1.0	2232381	2233420	ELCue	VGS	9	1	True	lime	460	[1035 1515  405  675]	[405 885 405 675]
58.297	2.0	2233837	2236449	ShowFixation	ANTI	10	1	True	red	460	[405 885 405 675]	[1035 1515  405  675]
60.91	0.2	2236450	2236667	BlankScreen	ANTI	10	1	True	red	460	[405 885 405 675]	[1035 1515  405  675]
61.128	1.0	2236668	2237689	ELCue	ANTI	10	1	True	red	460	[405 885 405 675]	[1035 1515  405  675]
62.553	6.0	2238093	2244721	ShowFixation	ANTI	11	1	True	red	180	[1035 1515  405  675]	[405 885 405 675]
69.181	0.2	2244721	2244960	BlankScreen	ANTI	11	1	True	red	180	[1035 1515  405  675]	[405 885 405 675]
69.42	1.0	2244960	2245997	ELCue	ANTI	11	1	True	red	180	[1035 1515  405  675]	[405 885 405 675]
70.859	6.0	2246399	2253011	ShowFixation	VGS	12	1	True	lime	600	[1350 1830  405  675]	[ 90 570 405 675]
77.472	0.2	2253012	2253250	BlankScreen	VGS	12	1	True	lime	600	[1350 1830  405  675]	[ 90 570 405 675]
77.711	1.0	2253251	2254291	ELCue	VGS	12	1	True	lime	600	[1350 1830  405  675]	[ 90 570 405 675]
79.168	6.0	2254708	2261337	ShowFixation	ANTI	13	1	True	red	40	[1350 1830  405  675]	[ 90 570 405 675]
85.797	0.2	2261337	2261576	BlankScreen	ANTI	13	1	True	red	40	[1350 1830  405  675]	[ 90 570 405 675]
86.036	1.0	2261576	2262617	ELCue	ANTI	13	1	True	red	40	[1350 1830  405  675]	[ 90 570 405 675]
87.478	2.0	2263018	2265662	ShowFixation	VGS	14	1	True	lime	40	[ 90 570 405 675]	[1350 1830  405  675]
90.122	0.2	2265662	2265897	BlankScreen	VGS	14	1	True	lime	40	[ 90 570 405 675]	[1350 1830  405  675]
90.357	1.0	2265897	2266934	ELCue	VGS	14	1	True	lime	40	[ 90 570 405 675]	[1350 1830  405  675]
91.802	2.0	2267342	2269949	ShowFixation	ANTI	15	1	True	red	40	[1350 1830  405  675]	[ 90 570 405 675]
94.409	0.2	2269949	2270168	BlankScreen	ANTI	15	1	True	red	40	[1350 1830  405  675]	[ 90 570 405 675]
94.628	1.0	2270168	2271191	ELCue	ANTI	15	1	True	red	40	[1350 1830  405  675]	[ 90 570 405 675]
96.07	2.0	2271610	2274237	ShowFixation	ANTI	16	1	True	red	180	[1035 1515  405  675]	[405 885 405 675]
98.697	0.2	2274237	2274472	BlankScreen	ANTI	16	1	True	red	180	[1035 1515  405  675]	[405 885 405 675]
98.932	1.0	2274472	2275513	ELCue	ANTI	16	1	True	red	180	[1035 1515  405  675]	[405 885 405 675]
127.508	6.0	2303048	2309084	ShowFixation	ANTI	17	2	False	red	40	[1350 1830  405  675]	[ 90 570 405 675]
133.544	0.2	2309084	2309323	BlankScreen	ANTI	17	2	False	red	40	[1350 1830  405  675]	[ 90 570 405 675]
133.783	1.0	2309323	2310323	ELCue	ANTI	17	2	False	red	40	[1350 1830  405  675]	[ 90 570 405 675]
135.208	6.0	2310748	2316775	ShowFixation	VGS	18	2	False	lime	40	[ 90 570 405 675]	[1350 1830  405  675]
141.235	0.2	2316775	2317014	BlankScreen	VGS	18	2	False	lime	40	[ 90 570 405 675]	[1350 1830  405  675]
141.474	1.0	2317014	2318014	ELCue	VGS	18	2	False	lime	40	[ 90 570 405 675]	[1350 1830  405  675]
142.893	2.0	2318433	2320466	ShowFixation	VGS	19	2	False	lime	180	[405 885 405 675]	[1035 1515  405  675]
144.926	0.2	2320466	2320701	BlankScreen	VGS	19	2	False	lime	180	[405 885 405 675]	[1035 1515  405  675]
145.161	1.0	2320701	2321701	ELCue	VGS	19	2	False	lime	180	[405 885 405 675]	[1035 1515  405  675]
146.583	2.0	2322123	2324153	ShowFixation	VGS	20	2	False	lime	180	[405 885 405 675]	[1035 1515  405  675]
148.613	0.2	2324153	2324388	BlankScreen	VGS	20	2	False	lime	180	[405 885 405 675]	[1035 1515  405  675]
148.848	1.0	2324388	2325388	ELCue	VGS	20	2	False	lime	180	[405 885 405 675]	[1035 1515  405  675]
150.274	2.0	2325814	2327840	ShowFixation	VGS	21	2	False	lime	460	[1035 1515  405  675]	[405 885 405 675]
152.3	0.2	2327840	2328075	BlankScreen	VGS	21	2	False	lime	460	[1035 1515  405  675]	[405 885 405 675]
152.535	1.0	2328075	2329075	ELCue	VGS	21	2	False	lime	460	[1035 1515  405  675]	[405 885 405 675]
153.96	6.0	2329500	2335527	ShowFixation	ANTI	22	2	False	red	600	[ 90 570 405 675]	[1350 1830  405  675]
159.987	0.2	2335527	2335766	BlankScreen	ANTI	22	2	False	red	600	[ 90 570 405 675]	[1350 1830  405  675]
160.226	1.0	2335766	2336766	ELCue	ANTI	22	2	False	red	600	[ 90 570 405 675]	[1350 1830  405  675]
161.646	6.0	2337186	2343218	ShowFixation	VGS	23	2	False	lime	180	[405 885 405 675]	[1035 1515  405  675]
167.678	0.2	2343218	2343457	BlankScreen	VGS	23	2	False	lime	180	[405 885 405 675]	[1035 1515  405  675]
167.917	1.0	2343457	2344457	ELCue	VGS	23	2	False	lime	180	[405 885 405 675]	[1035 1515  405  675]
169.343	2.0	2344883	2346909	ShowFixation	VGS	24	2	False	lime	600	[1350 1830  405  675]	[ 90 570 405 675]
171.369	0.2	2346909	2347144	BlankScreen	VGS	24	2	False	lime	600	[1350 1830  405  675]	[ 90 570 405 675]
171.604	1.0	2347144	2348144	ELCue	VGS	24	2	False	lime	600	[1350 1830  405  675]	[ 90 570 405 675]
173.026	2.0	2348566	2350595	ShowFixation	ANTI	25	2	False	red	460	[405 885 405 675]	[1035 1515  405  675]
175.055	0.2	2350595	2350831	BlankScreen	ANTI	25	2	False	red	460	[405 885 405 675]	[1035 1515  405  675]
175.291	1.0	2350831	2351831	ELCue	ANTI	25	2	False	red	460	[405 885 405 675]	[1035 1515  405  675]
176.711	2.0	2352251	2354282	ShowFixation	ANTI	26	2	False	red	600	[ 90 570 405 675]	[1350 1830  405  675]
178.742	0.2	2354282	2354518	BlankScreen	ANTI	26	2	False	red	600	[ 90 570 405 675]	[1350 1830  405  675]
178.978	1.0	2354518	2355518	ELCue	ANTI	26	2	False	red	600	[ 90 570 405 675]	[1350 1830  405  675]
180.398	6.0	2355938	2361969	ShowFixation	ANTI	27	2	False	red	460	[405 885 405 675]	[1035 1515  405  675]
186.429	0.2	2361969	2362209	BlankScreen	ANTI	27	2	False	red	460	[405 885 405 675]	[1035 1515  405  675]
186.67	1.0	2362210	2363210	ELCue	ANTI	27	2	False	red	460	[405 885 405 675]	[1035 1515  405  675]
188.092	6.0	2363632	2369660	ShowFixation	ANTI	28	2	False	red	180	[1035 1515  405  675]	[405 885 405 675]
194.121	0.2	2369661	2369901	BlankScreen	ANTI	28	2	False	red	180	[1035 1515  405  675]	[405 885 405 675]
194.361	1.0	2369901	2370901	ELCue	ANTI	28	2	False	red	180	[1035 1515  405  675]	[405 885 405 675]
195.784	2.0	2371324	2373351	ShowFixation	VGS	29	2	False	lime	600	[1350 1830  405  675]	[ 90 570 405 675]
197.812	0.2	2373352	2373588	BlankScreen	VGS	29	2	False	lime	600	[1350 1830  405  675]	[ 90 570 405 675]
198.048	1.0	2373588	2374588	ELCue	VGS	29	2	False	lime	600	[1350 1830  405  675]	[ 90 570 405 675]
199.465	2.0	2375005	2377039	ShowFixation	ANTI	30	2	False	red	40	[1350 1830  405  675]	[ 90 570 405 675]
201.499	0.2	2377039	2377274	BlankScreen	ANTI	30	2	False	red	40	[1350 1830  405  675]	[ 90 570 405 675]
201.734	1.0	2377274	2378274	ELCue	ANTI	30	2	False	red	40	[1350 1830  405  675]	[ 90 570 405 675]
203.155	6.0	2378695	2384726	ShowFixation	VGS	31	2	False	lime	460	[1035 1515  405  675]	[405 885 405 675]
209.186	0.2	2384726	2384965	BlankScreen	VGS	31	2	False	lime	460	[1035 1515  405  675]	[405 885 405 675]
209.425	1.0	2384965	2385965	ELCue	VGS	31	2	False	lime	460	[1035 1515  405  675]	[405 885 405 675]
210.844	6.0	2386384	2392417	ShowFixation	VGS	32	2	False	lime	460	[1035 1515  405  675]	[405 885 405 675]
216.877	0.2	2392417	2392656	BlankScreen	VGS	32	2	False	lime	460	[1035 1515  405  675]	[405 885 405 675]
217.116	1.0	2392656	2393656	ELCue	VGS	32	2	False	lime	460	[1035 1515  405  675]	[405 885 405 675]
218.534	2.0	2394074	2396108	ShowFixation	VGS	33	2	False	lime	40	[ 90 570 405 675]	[1350 1830  405  675]
220.568	0.2	2396108	2396343	BlankScreen	VGS	33	2	False	lime	40	[ 90 570 405 675]	[1350 1830  405  675]
220.803	1.0	2396343	2397343	ELCue	VGS	33	2	False	lime	40	[ 90 570 405 675]	[1350 1830  405  675]
222.224	2.0	2397764	2399795	ShowFixation	ANTI	34	2	False	red	460	[405 885 405 675]	[1035 1515  405  675]
224.255	0.2	2399795	2400030	BlankScreen	ANTI	34	2	False	red	460	[405 885 405 675]	[1035 1515  405  675]
224.49	1.0	2400030	2401030	ELCue	ANTI	34	2	False	red	460	[405 885 405 675]	[1035 1515  405  675]
225.908	2.0	2401448	2403482	ShowFixation	ANTI	35	2	False	red	180	[1035 1515  405  675]	[405 885 405 675]
227.942	0.2	2403482	2403717	BlankScreen	ANTI	35	2	False	red	180	[1035 1515  405  675]	[405 885 405 675]
228.177	1.0	2403717	2404717	ELCue	ANTI	35	2	False	red	180	[1035 1515  405  675]	[405 885 405 675]
229.595	6.0	2405135	2411169	ShowFixation	VGS	36	2	False	lime	600	[1350 1830  405  675]	[ 90 570 405 675]
235.629	0.2	2411169	2411408	BlankScreen	VGS	36	2	False	lime	600	[1350 1830  405  675]	[ 90 570 405 675]
235.868	1.0	2411408	2412408	ELCue	VGS	36	2	False	lime	600	[1350 1830  405  675]	[ 90 570 405 675]
237.29	2.0	2412830	2414860	ShowFixation	ANTI	37	2	False	red	40	[1350 1830  405  675]	[ 90 570 405 675]
239.32	0.2	2414860	2415095	BlankScreen	ANTI	37	2	False	red	40	[1350 1830  405  675]	[ 90 570 405 675]
239.555	1.0	2415095	2416095	ELCue	ANTI	37	2	False	red	40	[1350 1830  405  675]	[ 90 570 405 675]
240.976	6.0	2416516	2422547	ShowFixation	ANTI	38	2	False	red	180	[1035 1515  405  675]	[405 885 405 675]
247.007	0.2	2422547	2422786	BlankScreen	ANTI	38	2	False	red	180	[1035 1515  405  675]	[405 885 405 675]
247.246	1.0	2422786	2423786	ELCue	ANTI	38	2	False	red	180	[1035 1515  405  675]	[405 885 405 675]
248.667	6.0	2424207	2430238	ShowFixation	ANTI	39	2	False	red	600	[ 90 570 405 675]	[1350 1830  405  675]
254.698	0.2	2430238	2430477	BlankScreen	ANTI	39	2	False	red	600	[ 90 570 405 675]	[1350 1830  405  675]
254.937	1.0	2430477	2431477	ELCue	ANTI	39	2	False	red	600	[ 90 570 405 675]	[1350 1830  405  675]
256.402	2.0	2431942	2433979	ShowFixation	ANTI	40	2	False	red	180	[1035 1515  405  675]	[405 885 405 675]
258.439	0.2	2433979	2434214	BlankScreen	ANTI	40	2	False	red	180	[1035 1515  405  675]	[405 885 405 675]
258.674	1.0	2434214	2435214	ELCue	ANTI	40	2	False	red	180	[1035 1515  405  675]	[405 885 405 675]
260.096	2.0	2435636	2437666	ShowFixation	VGS	41	2	False	lime	460	[1035 1515  405  675]	[405 885 405 675]
262.126	0.2	2437666	2437901	BlankScreen	VGS	41	2	False	lime	460	[1035 1515  405  675]	[405 885 405 675]
262.361	1.0	2437901	2438901	ELCue	VGS	41	2	False	lime	460	[1035 1515  405  675]	[405 885 405 675]
263.781	6.0	2439321	2445352	ShowFixation	VGS	42	2	False	lime	600	[1350 1830  405  675]	[ 90 570 405 675]
269.812	0.2	2445352	2445592	BlankScreen	VGS	42	2	False	lime	600	[1350 1830  405  675]	[ 90 570 405 675]
270.052	1.0	2445592	2446592	ELCue	VGS	42	2	False	lime	600	[1350 1830  405  675]	[ 90 570 405 675]
271.472	6.0	2447012	2453043	ShowFixation	ANTI	43	2	False	red	460	[405 885 405 675]	[1035 1515  405  675]
277.503	0.2	2453043	2453283	BlankScreen	ANTI	43	2	False	red	460	[405 885 405 675]	[1035 1515  405  675]
277.743	1.0	2453283	2454283	ELCue	ANTI	43	2	False	red	460	[405 885 405 675]	[1035 1515  405  675]
279.166	2.0	2454706	2456734	ShowFixation	VGS	44	2	False	lime	40	[ 90 570 405 675]	[1350 1830  405  675]
281.194	0.2	2456734	2456970	BlankScreen	VGS	44	2	False	lime	40	[ 90 570 405 675]	[1350 1830  405  675]
281.43	1.0	2456970	2457970	ELCue	VGS	44	2	False	lime	40	[ 90 570 405 675]	[1350 1830  405  675]
282.852	6.0	2458392	2464421	ShowFixation	ANTI	45	2	False	red	40	[1350 1830  405  675]	[ 90 570 405 675]
288.881	0.2	2464421	2464661	BlankScreen	ANTI	45	2	False	red	40	[1350 1830  405  675]	[ 90 570 405 675]
289.121	1.0	2464661	2465661	ELCue	ANTI	45	2	False	red	40	[1350 1830  405  675]	[ 90 570 405 675]
290.538	6.0	2466078	2472112	ShowFixation	VGS	46	2	False	lime	180	[405 885 405 675]	[1035 1515  405  675]
296.572	0.2	2472112	2472351	BlankScreen	VGS	46	2	False	lime	180	[405 885 405 675]	[1035 1515  405  675]
296.811	1.0	2472351	2473351	ELCue	VGS	46	2	False	lime	180	[405 885 405 675]	[1035 1515  405  675]
298.234	6.0	2473774	2479803	ShowFixation	VGS	47	2	False	lime	40	[ 90 570 405 675]	[1350 1830  405  675]
304.263	0.2	2479803	2480042	BlankScreen	VGS	47	2	False	lime	40	[ 90 570 405 675]	[1350 1830  405  675]
304.502	1.0	2480042	2481042	ELCue	VGS	47	2	False	lime	40	[ 90 570 405 675]	[1350 1830  405  675]
305.924	2.0	2481464	2483494	ShowFixation	ANTI	48	2	False	red	600	[ 90 570 405 675]	[1350 1830  405  675]
307.955	0.2	2483495	2483729	BlankScreen	ANTI	48	2	False	red	600	[ 90 570 405 675]	[1350 1830  405  675]
308.189	1.0	2483729	2484729	ELCue	ANTI	48	2	False	red	600	[ 90 570 405 675]	[1350 1830  405  675]
325.338	6.0	2500878	2506913	ShowFixation	ANTI	49	3	False	red	460	[405 885 405 675]	[1035 1515  405  675]
331.373	0.2	2506913	2507152	BlankScreen	ANTI	49	3	False	red	460	[405 885 405 675]	[1035 1515  405  675]
331.612	1.0	2507152	2508152	ELCue	ANTI	49	3	False	red	460	[405 885 405 675]	[1035 1515  405  675]
333.036	6.0	2508576	2514605	ShowFixation	ANTI	50	3	False	red	600	[ 90 570 405 675]	[1350 1830  405  675]
339.065	0.2	2514605	2514844	BlankScreen	ANTI	50	3	False	red	600	[ 90 570 405 675]	[1350 1830  405  675]
339.304	1.0	2514844	2515844	ELCue	ANTI	50	3	False	red	600	[ 90 570 405 675]	[1350 1830  405  675]
340.709	2.0	2516249	2518279	ShowFixation	ANTI	51	3	False	red	180	[1035 1515  405  675]	[405 885 405 675]
342.739	0.2	2518279	2518515	BlankScreen	ANTI	51	3	False	red	180	[1035 1515  405  675]	[405 885 405 675]
342.975	1.0	2518515	2519515	ELCue	ANTI	51	3	False	red	180	[1035 1515  405  675]	[405 885 405 675]
344.398	6.0	2519938	2525966	ShowFixation	VGS	52	3	False	lime	180	[405 885 405 675]	[1035 1515  405  675]
350.426	0.2	2525966	2526205	BlankScreen	VGS	52	3	False	lime	180	[405 885 405 675]	[1035 1515  405  675]
350.665	1.0	2526205	2527205	ELCue	VGS	52	3	False	lime	180	[405 885 405 675]	[1035 1515  405  675]
352.088	6.0	2527628	2533657	ShowFixation	ANTI	53	3	False	red	600	[ 90 570 405 675]	[1350 1830  405  675]
358.117	0.2	2533657	2533896	BlankScreen	ANTI	53	3	False	red	600	[ 90 570 405 675]	[1350 1830  405  675]
358.356	1.0	2533896	2534896	ELCue	ANTI	53	3	False	red	600	[ 90 570 405 675]	[1350 1830  405  675]
359.774	2.0	2535314	2537348	ShowFixation	VGS	54	3	False	lime	180	[405 885 405 675]	[1035 1515  405  675]
361.808	0.2	2537348	2537583	BlankScreen	VGS	54	3	False	lime	180	[405 885 405 675]	[1035 1515  405  675]
362.043	1.0	2537583	2538583	ELCue	VGS	54	3	False	lime	180	[405 885 405 675]	[1035 1515  405  675]
363.462	2.0	2539002	2541035	ShowFixation	ANTI	55	3	False	red	40	[1350 1830  405  675]	[ 90 570 405 675]
365.495	0.2	2541035	2541269	BlankScreen	ANTI	55	3	False	red	40	[1350 1830  405  675]	[ 90 570 405 675]
365.73	1.0	2541270	2542270	ELCue	ANTI	55	3	False	red	40	[1350 1830  405  675]	[ 90 570 405 675]
367.152	6.0	2542692	2548721	ShowFixation	ANTI	56	3	False	red	40	[1350 1830  405  675]	[ 90 570 405 675]
373.181	0.2	2548721	2548960	BlankScreen	ANTI	56	3	False	red	40	[1350 1830  405  675]	[ 90 570 405 675]
373.42	1.0	2548960	2549960	ELCue	ANTI	56	3	False	red	40	[1350 1830  405  675]	[ 90 570 405 675]
374.842	2.0	2550382	2552413	ShowFixation	VGS	57	3	False	lime	600	[1350 1830  405  675]	[ 90 570 405 675]
376.873	0.2	2552413	2552648	BlankScreen	VGS	57	3	False	lime	600	[1350 1830  405  675]	[ 90 570 405 675]
377.108	1.0	2552648	2553648	ELCue	VGS	57	3	False	lime	600	[1350 1830  405  675]	[ 90 570 405 675]
378.532	6.0	2554072	2560100	ShowFixation	VGS	58	3	False	lime	40	[ 90 570 405 675]	[1350 1830  405  675]
384.56	0.2	2560100	2560339	BlankScreen	VGS	58	3	False	lime	40	[ 90 570 405 675]	[1350 1830  405  675]
384.799	1.0	2560339	2561339	ELCue	VGS	58	3	False	lime	40	[ 90 570 405 675]	[1350 1830  405  675]
386.219	6.0	2561759	2567791	ShowFixation	VGS	59	3	False	lime	460	[1035 1515  405  675]	[405 885 405 675]
392.251	0.2	2567791	2568030	BlankScreen	VGS	59	3	False	lime	460	[1035 1515  405  675]	[405 885 405 675]
392.49	1.0	2568030	2569030	ELCue	VGS	59	3	False	lime	460	[1035 1515  405  675]	[405 885 405 675]
393.907	6.0	2569447	2575482	ShowFixation	VGS	60	3	False	lime	180	[405 885 405 675]	[1035 1515  405  675]
399.942	0.2	2575482	2575721	BlankScreen	VGS	60	3	False	lime	180	[405 885 405 675]	[1035 1515  405  675]
400.181	1.0	2575721	2576721	ELCue	VGS	60	3	False	lime	180	[405 885 405 675]	[1035 1515  405  675]
401.6	2.0	2577140	2579173	ShowFixation	VGS	61	3	False	lime	460	[1035 1515  405  675]	[405 885 405 675]
403.633	0.2	2579173	2579408	BlankScreen	VGS	61	3	False	lime	460	[1035 1515  405  675]	[405 885 405 675]
403.868	1.0	2579408	2580408	ELCue	VGS	61	3	False	lime	460	[1035 1515  405  675]	[405 885 405 675]
405.287	6.0	2580827	2586859	ShowFixation	VGS	62	3	False	lime	460	[1035 1515  405  675]	[405 885 405 675]
411.319	0.2	2586859	2587099	BlankScreen	VGS	62	3	False	lime	460	[1035 1515  405  675]	[405 885 405 675]
411.559	1.0	2587099	2588099	ELCue	VGS	62	3	False	lime	460	[1035 1515  405  675]	[405 885 405 675]
412.976	2.0	2588516	2590550	ShowFixation	ANTI	63	3	False	red	180	[1035 1515  405  675]	[405 885 405 675]
415.01	0.2	2590550	2590786	BlankScreen	ANTI	63	3	False	red	180	[1035 1515  405  675]	[405 885 405 675]
415.246	1.0	2590786	2591786	ELCue	ANTI	63	3	False	red	180	[1035 1515  405  675]	[405 885 405 675]
416.668	2.0	2592208	2594237	ShowFixation	ANTI	64	3	False	red	460	[405 885 405 675]	[1035 1515  405  675]
418.697	0.2	2594237	2594473	BlankScreen	ANTI	64	3	False	red	460	[405 885 405 675]	[1035 1515  405  675]
418.933	1.0	2594473	2595473	ELCue	ANTI	64	3	False	red	460	[405 885 405 675]	[1035 1515  405  675]
420.356	6.0	2595896	2601924	ShowFixation	VGS	65	3	False	lime	600	[1350 1830  405  675]	[ 90 570 405 675]
426.384	0.2	2601924	2602164	BlankScreen	VGS	65	3	False	lime	600	[1350 1830  405  675]	[ 90 570 405 675]
426.624	1.0	2602164	2603164	ELCue	VGS	65	3	False	lime	600	[1350 1830  405  675]	[ 90 570 405 675]
428.048	6.0	2603588	2609615	ShowFixation	VGS	66	3	False	lime	40	[ 90 570 405 675]	[1350 1830  405  675]
434.075	0.2	2609615	2609855	BlankScreen	VGS	66	3	False	lime	40	[ 90 570 405 675]	[1350 1830  405  675]
434.315	1.0	2609855	2610855	ELCue	VGS	66	3	False	lime	40	[ 90 570 405 675]	[1350 1830  405  675]
435.738	2.0	2611278	2613306	ShowFixation	VGS	67	3	False	lime	40	[ 90 570 405 675]	[1350 1830  405  675]
437.766	0.2	2613306	2613541	BlankScreen	VGS	67	3	False	lime	40	[ 90 570 405 675]	[1350 1830  405  675]
438.001	1.0	2613541	2614541	ELCue	VGS	67	3	False	lime	40	[ 90 570 405 675]	[1350 1830  405  675]
439.419	6.0	2614959	2620993	ShowFixation	ANTI	68	3	False	red	460	[405 885 405 675]	[1035 1515  405  675]
445.453	0.2	2620993	2621232	BlankScreen	ANTI	68	3	False	red	460	[405 885 405 675]	[1035 1515  405  675]
445.692	1.0	2621232	2622232	ELCue	ANTI	68	3	False	red	460	[405 885 405 675]	[1035 1515  405  675]
447.116	2.0	2622656	2624684	ShowFixation	ANTI	69	3	False	red	460	[405 885 405 675]	[1035 1515  405  675]
449.144	0.2	2624684	2624919	BlankScreen	ANTI	69	3	False	red	460	[405 885 405 675]	[1035 1515  405  675]
449.379	1.0	2624919	2625919	ELCue	ANTI	69	3	False	red	460	[405 885 405 675]	[1035 1515  405  675]
450.8	2.0	2626340	2628371	ShowFixation	VGS	70	3	False	lime	40	[ 90 570 405 675]	[1350 1830  405  675]
452.831	0.2	2628371	2628606	BlankScreen	VGS	70	3	False	lime	40	[ 90 570 405 675]	[1350 1830  405  675]
453.066	1.0	2628606	2629606	ELCue	VGS	70	3	False	lime	40	[ 90 570 405 675]	[1350 1830  405  675]
454.49	2.0	2630030	2632058	ShowFixation	VGS	71	3	False	lime	600	[1350 1830  405  675]	[ 90 570 405 675]
456.518	0.2	2632058	2632293	BlankScreen	VGS	71	3	False	lime	600	[1350 1830  405  675]	[ 90 570 405 675]
456.753	1.0	2632293	2633293	ELCue	VGS	71	3	False	lime	600	[1350 1830  405  675]	[ 90 570 405 675]
458.174	2.0	2633714	2635745	ShowFixation	VGS	72	3	False	lime	460	[1035 1515  405  675]	[405 885 405 675]
460.205	0.2	2635745	2635980	BlankScreen	VGS	72	3	False	lime	460	[1035 1515  405  675]	[405 885 405 675]
460.44	1.0	2635980	2636980	ELCue	VGS	72	3	False	lime	460	[1035 1515  405  675]	[405 885 405 675]
461.866	6.0	2637406	2643432	ShowFixation	ANTI	73	3	False	red	40	[1350 1830  405  675]	[ 90 570 405 675]
467.892	0.2	2643432	2643671	BlankScreen	ANTI	73	3	False	red	40	[1350 1830  405  675]	[ 90 570 405 675]
468.131	1.0	2643671	2644671	ELCue	ANTI	73	3	False	red	40	[1350 1830  405  675]	[ 90 570 405 675]
469.551	6.0	2645091	2651123	ShowFixation	VGS	74	3	False	lime	600	[1350 1830  405  675]	[ 90 570 405 675]
475.583	0.2	2651123	2651362	BlankScreen	VGS	74	3	False	lime	600	[1350 1830  405  675]	[ 90 570 405 675]
475.822	1.0	2651362	2652362	ELCue	VGS	74	3	False	lime	600	[1350 1830  405  675]	[ 90 570 405 675]
477.242	6.0	2652782	2658814	ShowFixation	ANTI	75	3	False	red	180	[1035 1515  405  675]	[405 885 405 675]
483.274	0.2	2658814	2659053	BlankScreen	ANTI	75	3	False	red	180	[1035 1515  405  675]	[405 885 405 675]
483.513	1.0	2659053	2660053	ELCue	ANTI	75	3	False	red	180	[1035 1515  405  675]	[405 885 405 675]
484.938	2.0	2660478	2662505	ShowFixation	VGS	76	3	False	lime	180	[405 885 405 675]	[1035 1515  405  675]
486.965	0.2	2662505	2662740	BlankScreen	VGS	76	3	False	lime	180	[405 885 405 675]	[1035 1515  405  675]
487.201	1.0	2662741	2663741	ELCue	VGS	76	3	False	lime	180	[405 885 405 675]	[1035 1515  405  675]
488.626	2.0	2664166	2666193	ShowFixation	ANTI	77	3	False	red	600	[ 90 570 405 675]	[1350 1830  405  675]
490.653	0.2	2666193	2666427	BlankScreen	ANTI	77	3	False	red	600	[ 90 570 405 675]	[1350 1830  405  675]
490.887	1.0	2666427	2667427	ELCue	ANTI	77	3	False	red	600	[ 90 570 405 675]	[1350 1830  405  675]
492.307	2.0	2667847	2669880	ShowFixation	ANTI	78	3	False	red	40	[1350 1830  405  675]	[ 90 570 405 675]
494.34	0.2	2669880	2670115	BlankScreen	ANTI	78	3	False	red	40	[1350 1830  405  675]	[ 90 570 405 675]
494.575	1.0	2670115	2671115	ELCue	ANTI	78	3	False	red	40	[1350 1830  405  675]	[ 90 570 405 675]
495.992	2.0	2671532	2673566	ShowFixation	ANTI	79	3	False	red	600	[ 90 570 405 675]	[1350 1830  405  675]
498.026	0.2	2673566	2673802	BlankScreen	ANTI	79	3	False	red	600	[ 90 570 405 675]	[1350 1830  405  675]
498.262	1.0	2673802	2674802	ELCue	ANTI	79	3	False	red	600	[ 90 570 405 675]	[1350 1830  405  675]
499.679	6.0	2675219	2681253	ShowFixation	ANTI	80	3	False	red	180	[1035 1515  405  675]	[405 885 405 675]
505.713	0.2	2681253	2681493	BlankScreen	ANTI	80	3	False	red	180	[1035 1515  405  675]	[405 885 405 675]
505.953	1.0	2681493	2682493	ELCue	ANTI	80	3	False	red	180	[1035 1515  405  675]	[405 885 405 675]
555.637	2.0	2731177	2733209	ShowFixation	VGS	81	4	False	lime	600	[1350 1830  405  675]	[ 90 570 405 675]
557.669	0.2	2733209	2733444	BlankScreen	VGS	81	4	False	lime	600	[1350 1830  405  675]	[ 90 570 405 675]
557.904	1.0	2733444	2734444	ELCue	VGS	81	4	False	lime	600	[1350 1830  405  675]	[ 90 570 405 675]
559.309	2.0	2734849	2736879	ShowFixation	ANTI	82	4	False	red	600	[ 90 570 405 675]	[1350 1830  405  675]
561.339	0.2	2736879	2737114	BlankScreen	ANTI	82	4	False	red	600	[ 90 570 405 675]	[1350 1830  405  675]
561.574	1.0	2737114	2738114	ELCue	ANTI	82	4	False	red	600	[ 90 570 405 675]	[1350 1830  405  675]
562.99	6.0	2738530	2744566	ShowFixation	VGS	83	4	False	lime	40	[ 90 570 405 675]	[1350 1830  405  675]
569.026	0.2	2744566	2744805	BlankScreen	VGS	83	4	False	lime	40	[ 90 570 405 675]	[1350 1830  405  675]
569.265	1.0	2744805	2745805	ELCue	VGS	83	4	False	lime	40	[ 90 570 405 675]	[1350 1830  405  675]
570.686	2.0	2746226	2748257	ShowFixation	VGS	84	4	False	lime	180	[405 885 405 675]	[1035 1515  405  675]
572.717	0.2	2748257	2748492	BlankScreen	VGS	84	4	False	lime	180	[405 885 405 675]	[1035 1515  405  675]
572.952	1.0	2748492	2749492	ELCue	VGS	84	4	False	lime	180	[405 885 405 675]	[1035 1515  405  675]
574.372	6.0	2749912	2755944	ShowFixation	ANTI	85	4	False	red	600	[ 90 570 405 675]	[1350 1830  405  675]
580.404	0.2	2755944	2756183	BlankScreen	ANTI	85	4	False	red	600	[ 90 570 405 675]	[1350 1830  405  675]
580.643	1.0	2756183	2757183	ELCue	ANTI	85	4	False	red	600	[ 90 570 405 675]	[1350 1830  405  675]
582.061	6.0	2757601	2763635	ShowFixation	VGS	86	4	False	lime	600	[1350 1830  405  675]	[ 90 570 405 675]
588.095	0.2	2763635	2763874	BlankScreen	VGS	86	4	False	lime	600	[1350 1830  405  675]	[ 90 570 405 675]
588.334	1.0	2763874	2764874	ELCue	VGS	86	4	False	lime	600	[1350 1830  405  675]	[ 90 570 405 675]
589.759	6.0	2765299	2771325	ShowFixation	ANTI	87	4	False	red	40	[1350 1830  405  675]	[ 90 570 405 675]
595.785	0.2	2771325	2771565	BlankScreen	ANTI	87	4	False	red	40	[1350 1830  405  675]	[ 90 570 405 675]
596.025	1.0	2771565	2772565	ELCue	ANTI	87	4	False	red	40	[1350 1830  405  675]	[ 90 570 405 675]
597.446	6.0	2772986	2779016	ShowFixation	ANTI	88	4	False	red	600	[ 90 570 405 675]	[1350 1830  405  675]
603.476	0.2	2779016	2779256	BlankScreen	ANTI	88	4	False	red	600	[ 90 570 405 675]	[1350 1830  405  675]
603.716	1.0	2779256	2780256	ELCue	ANTI	88	4	False	red	600	[ 90 570 405 675]	[1350 1830  405  675]
605.126	6.0	2780666	2786691	ShowFixation	ANTI	89	4	False	red	40	[1350 1830  405  675]	[ 90 570 405 675]
611.151	0.2	2786691	2786930	BlankScreen	ANTI	89	4	False	red	40	[1350 1830  405  675]	[ 90 570 405 675]
611.39	1.0	2786930	2787930	ELCue	ANTI	89	4	False	red	40	[1350 1830  405  675]	[ 90 570 405 675]
612.813	6.0	2788353	2794382	ShowFixation	VGS	90	4	False	lime	180	[405 885 405 675]	[1035 1515  405  675]
618.842	0.2	2794382	2794621	BlankScreen	VGS	90	4	False	lime	180	[405 885 405 675]	[1035 1515  405  675]
619.081	1.0	2794621	2795621	ELCue	VGS	90	4	False	lime	180	[405 885 405 675]	[1035 1515  405  675]
620.5	6.0	2796040	2802072	ShowFixation	ANTI	91	4	False	red	460	[405 885 405 675]	[1035 1515  405  675]
626.532	0.2	2802072	2802312	BlankScreen	ANTI	91	4	False	red	460	[405 885 405 675]	[1035 1515  405  675]
626.772	1.0	2802312	2803312	ELCue	ANTI	91	4	False	red	460	[405 885 405 675]	[1035 1515  405  675]
628.19	6.0	2803730	2809763	ShowFixation	ANTI	92	4	False	red	180	[1035 1515  405  675]	[405 885 405 675]
634.224	0.2	2809764	2810004	BlankScreen	ANTI	92	4	False	red	180	[1035 1515  405  675]	[405 885 405 675]
634.464	1.0	2810004	2811004	ELCue	ANTI	92	4	False	red	180	[1035 1515  405  675]	[405 885 405 675]
635.883	6.0	2811423	2817455	ShowFixation	ANTI	93	4	False	red	460	[405 885 405 675]	[1035 1515  405  675]
641.915	0.2	2817455	2817694	BlankScreen	ANTI	93	4	False	red	460	[405 885 405 675]	[1035 1515  405  675]
642.154	1.0	2817694	2818694	ELCue	ANTI	93	4	False	red	460	[405 885 405 675]	[1035 1515  405  675]
643.577	6.0	2819117	2825146	ShowFixation	VGS	94	4	False	lime	180	[405 885 405 675]	[1035 1515  405  675]
649.606	0.2	2825146	2825385	BlankScreen	VGS	94	4	False	lime	180	[405 885 405 675]	[1035 1515  405  675]
649.845	1.0	2825385	2826385	ELCue	VGS	94	4	False	lime	180	[405 885 405 675]	[1035 1515  405  675]
651.265	2.0	2826805	2828837	ShowFixation	VGS	95	4	False	lime	460	[1035 1515  405  675]	[405 885 405 675]
653.297	0.2	2828837	2829072	BlankScreen	VGS	95	4	False	lime	460	[1035 1515  405  675]	[405 885 405 675]
653.532	1.0	2829072	2830072	ELCue	VGS	95	4	False	lime	460	[1035 1515  405  675]	[405 885 405 675]
654.955	2.0	2830495	2832524	ShowFixation	VGS	96	4	False	lime	40	[ 90 570 405 675]	[1350 1830  405  675]
656.984	0.2	2832524	2832759	BlankScreen	VGS	96	4	False	lime	40	[ 90 570 405 675]	[1350 1830  405  675]
657.219	1.0	2832759	2833759	ELCue	VGS	96	4	False	lime	40	[ 90 570 405 675]	[1350 1830  405  675]
658.639	2.0	2834179	2836211	ShowFixation	ANTI	97	4	False	red	600	[ 90 570 405 675]	[1350 1830  405  675]
660.671	0.2	2836211	2836446	BlankScreen	ANTI	97	4	False	red	600	[ 90 570 405 675]	[1350 1830  405  675]
660.906	1.0	2836446	2837446	ELCue	ANTI	97	4	False	red	600	[ 90 570 405 675]	[1350 1830  405  675]
662.329	2.0	2837869	2839898	ShowFixation	VGS	98	4	False	lime	600	[1350 1830  405  675]	[ 90 570 405 675]
664.358	0.2	2839898	2840133	BlankScreen	VGS	98	4	False	lime	600	[1350 1830  405  675]	[ 90 570 405 675]
664.593	1.0	2840133	2841133	ELCue	VGS	98	4	False	lime	600	[1350 1830  405  675]	[ 90 570 405 675]
666.015	2.0	2841555	2843585	ShowFixation	ANTI	99	4	False	red	180	[1035 1515  405  675]	[405 885 405 675]
668.045	0.2	2843585	2843820	BlankScreen	ANTI	99	4	False	red	180	[1035 1515  405  675]	[405 885 405 675]
668.28	1.0	2843820	2844820	ELCue	ANTI	99	4	False	red	180	[1035 1515  405  675]	[405 885 405 675]
669.704	2.0	2845244	2847272	ShowFixation	ANTI	100	4	False	red	40	[1350 1830  405  675]	[ 90 570 405 675]
671.732	0.2	2847272	2847507	BlankScreen	ANTI	100	4	False	red	40	[1350 1830  405  675]	[ 90 570 405 675]
671.967	1.0	2847507	2848507	ELCue	ANTI	100	4	False	red	40	[1350 1830  405  675]	[ 90 570 405 675]
673.385	6.0	2848925	2854959	ShowFixation	VGS	101	4	False	lime	460	[1035 1515  405  675]	[405 885 405 675]
679.419	0.2	2854959	2855198	BlankScreen	VGS	101	4	False	lime	460	[1035 1515  405  675]	[405 885 405 675]
679.658	1.0	2855198	2856198	ELCue	VGS	101	4	False	lime	460	[1035 1515  405  675]	[405 885 405 675]
681.076	6.0	2856616	2862650	ShowFixation	VGS	102	4	False	lime	600	[1350 1830  405  675]	[ 90 570 405 675]
687.11	0.2	2862650	2862889	BlankScreen	VGS	102	4	False	lime	600	[1350 1830  405  675]	[ 90 570 405 675]
687.349	1.0	2862889	2863889	ELCue	VGS	102	4	False	lime	600	[1350 1830  405  675]	[ 90 570 405 675]
688.77	2.0	2864310	2866341	ShowFixation	ANTI	103	4	False	red	180	[1035 1515  405  675]	[405 885 405 675]
690.801	0.2	2866341	2866576	BlankScreen	ANTI	103	4	False	red	180	[1035 1515  405  675]	[405 885 405 675]
691.036	1.0	2866576	2867576	ELCue	ANTI	103	4	False	red	180	[1035 1515  405  675]	[405 885 405 675]
692.453	6.0	2867993	2874028	ShowFixation	VGS	104	4	False	lime	460	[1035 1515  405  675]	[405 885 405 675]
698.488	0.2	2874028	2874267	BlankScreen	VGS	104	4	False	lime	460	[1035 1515  405  675]	[405 885 405 675]
698.727	1.0	2874267	2875267	ELCue	VGS	104	4	False	lime	460	[1035 1515  405  675]	[405 885 405 675]
700.116	2.0	2875656	2877685	ShowFixation	ANTI	105	4	False	red	460	[405 885 405 675]	[1035 1515  405  675]
702.145	0.2	2877685	2877920	BlankScreen	ANTI	105	4	False	red	460	[405 885 405 675]	[1035 1515  405  675]
702.38	1.0	2877920	2878920	ELCue	ANTI	105	4	False	red	460	[405 885 405 675]	[1035 1515  405  675]
703.803	2.0	2879343	2881372	ShowFixation	ANTI	106	4	False	red	460	[405 885 405 675]	[1035 1515  405  675]
705.832	0.2	2881372	2881607	BlankScreen	ANTI	106	4	False	red	460	[405 885 405 675]	[1035 1515  405  675]
706.067	1.0	2881607	2882607	ELCue	ANTI	106	4	False	red	460	[405 885 405 675]	[1035 1515  405  675]
707.489	2.0	2883029	2885059	ShowFixation	VGS	107	4	False	lime	40	[ 90 570 405 675]	[1350 1830  405  675]
709.519	0.2	2885059	2885294	BlankScreen	VGS	107	4	False	lime	40	[ 90 570 405 675]	[1350 1830  405  675]
709.754	1.0	2885294	2886294	ELCue	VGS	107	4	False	lime	40	[ 90 570 405 675]	[1350 1830  405  675]
711.176	6.0	2886716	2892746	ShowFixation	ANTI	108	4	False	red	180	[1035 1515  405  675]	[405 885 405 675]
717.206	0.2	2892746	2892985	BlankScreen	ANTI	108	4	False	red	180	[1035 1515  405  675]	[405 885 405 675]
717.445	1.0	2892985	2893985	ELCue	ANTI	108	4	False	red	180	[1035 1515  405  675]	[405 885 405 675]
718.869	6.0	2894409	2900437	ShowFixation	VGS	109	4	False	lime	40	[ 90 570 405 675]	[1350 1830  405  675]
724.897	0.2	2900437	2900676	BlankScreen	VGS	109	4	False	lime	40	[ 90 570 405 675]	[1350 1830  405  675]
725.136	1.0	2900676	2901676	ELCue	VGS	109	4	False	lime	40	[ 90 570 405 675]	[1350 1830  405  675]
726.555	2.0	2902095	2904128	ShowFixation	ANTI	110	4	False	red	40	[1350 1830  405  675]	[ 90 570 405 675]
728.588	0.2	2904128	2904363	BlankScreen	ANTI	110	4	False	red	40	[1350 1830  405  675]	[ 90 570 405 675]
728.823	1.0	2904363	2905363	ELCue	ANTI	110	4	False	red	40	[1350 1830  405  675]	[ 90 570 405 675]
730.248	2.0	2905788	2907815	ShowFixation	VGS	111	4	False	lime	460	[1035 1515  405  675]	[405 885 405 675]
732.275	0.2	2907815	2908050	BlankScreen	VGS	111	4	False	lime	460	[1035 1515  405  675]	[405 885 405 675]
732.51	1.0	2908050	2909050	ELCue	VGS	111	4	False	lime	460	[1035 1515  405  675]	[405 885 405 675]
733.934	2.0	2909474	2911502	ShowFixation	VGS	112	4	False	lime	180	[405 885 405 675]	[1035 1515  405  675]
735.962	0.2	2911502	2911737	BlankScreen	VGS	112	4	False	lime	180	[405 885 405 675]	[1035 1515  405  675]
736.197	1.0	2911737	2912737	ELCue	VGS	112	4	False	lime	180	[405 885 405 675]	[1035 1515  405  675]
