participant_id	condition	accuracy	reaction_time
sub-24035	incongruent	1	0.908
sub-24035	congruent	1	0.551
sub-24035	incongruent	1	0.538
sub-24035	congruent	1	0.436
sub-24035	incongruent	1	0.852
sub-24035	incongruent	1	0.609
sub-24035	incongruent	1	0.661
sub-24035	incongruent	1	0.625
sub-24035	incongruent	1	0.591
sub-24035	congruent	1	0.468
sub-24035	congruent	1	0.510
sub-24035	incongruent	1	0.550
sub-24035	incongruent	1	0.698
sub-24035	congruent	1	0.704
sub-24035	congruent	1	0.473
sub-24035	incongruent	1	0.701
sub-24035	incongruent	1	0.575
sub-24035	congruent	1	0.563
sub-24035	congruent	1	0.440
sub-24035	incongruent	1	0.618
sub-24035	congruent	1	0.412
sub-24035	incongruent	1	0.611
sub-24035	congruent	1	0.496
sub-24035	incongruent	1	0.535
sub-24035	congruent	1	0.601
sub-24035	congruent	1	0.463
sub-24035	congruent	1	0.415
sub-24035	incongruent	1	0.584
sub-24035	congruent	1	0.715
sub-24035	incongruent	1	0.550
sub-24035	incongruent	1	0.571
sub-24035	incongruent	1	0.689
sub-24035	congruent	1	0.462
sub-24035	congruent	1	0.424
sub-24035	incongruent	1	0.636
sub-24035	incongruent	1	0.687
sub-24035	incongruent	1	0.542
sub-24035	incongruent	1	0.941
sub-24035	incongruent	1	0.626
sub-24035	congruent	1	0.497
sub-24035	incongruent	1	0.611
sub-24035	congruent	1	0.532
sub-24035	congruent	1	0.358
sub-24035	congruent	1	0.350
sub-24035	congruent	1	0.396
sub-24035	incongruent	0	0.377
sub-24035	incongruent	1	0.925
sub-24035	congruent	1	0.499
sub-24035	incongruent	1	0.587
sub-24035	congruent	1	0.499
sub-24035	congruent	1	0.578
sub-24035	incongruent	1	0.562
sub-24035	congruent	1	0.758
sub-24035	incongruent	1	0.602
sub-24035	congruent	1	0.605
sub-24035	congruent	1	0.523
sub-24035	incongruent	1	0.514
sub-24035	congruent	1	0.736
sub-24035	congruent	1	0.541
sub-24035	congruent	1	0.492
sub-24035	incongruent	1	0.601
sub-24035	incongruent	0	0.466
sub-24035	congruent	1	0.359
sub-24035	congruent	1	0.433
sub-24035	congruent	1	0.470
sub-24035	congruent	1	0.402
sub-24035	congruent	1	0.385
sub-24035	congruent	1	0.394
sub-24035	incongruent	1	0.569
sub-24035	congruent	1	0.448
sub-24035	incongruent	1	0.491
sub-24035	incongruent	1	0.601
sub-24035	incongruent	1	0.491
sub-24035	congruent	1	0.364
sub-24035	incongruent	1	0.547
sub-24035	incongruent	1	0.549
sub-24035	incongruent	1	0.491
sub-24035	incongruent	1	0.531
sub-24035	congruent	1	0.408
sub-24035	congruent	1	0.359
sub-24035	congruent	1	0.412
sub-24035	congruent	1	0.441
sub-24035	incongruent	1	0.484
sub-24035	incongruent	1	0.518
sub-24035	incongruent	1	0.517
sub-24035	incongruent	1	0.463
sub-24035	congruent	1	0.430
sub-24035	congruent	1	0.494
sub-24035	incongruent	0	0.464
sub-24035	incongruent	1	0.705
sub-24035	incongruent	1	0.431
sub-24035	incongruent	1	0.461
sub-24035	congruent	1	0.571
sub-24035	congruent	1	0.456
sub-24035	incongruent	1	0.518
sub-24035	incongruent	0	0.400
sub-24035	congruent	1	0.382
sub-24035	congruent	1	0.338
sub-24035	congruent	1	0.499
sub-24035	incongruent	0	0.393
sub-24035	incongruent	0	0.391
sub-24035	incongruent	1	0.594
sub-24035	congruent	1	0.464
sub-24035	congruent	1	0.474
sub-24035	incongruent	0	0.487
sub-24035	congruent	1	0.372
sub-24035	congruent	1	0.421
sub-24035	congruent	1	0.567
sub-24035	incongruent	1	0.572
sub-24035	incongruent	1	0.718
sub-24035	congruent	1	0.607
sub-24035	incongruent	0	0.453
sub-24035	congruent	1	0.430
sub-24035	incongruent	0	0.734
sub-24035	congruent	0	0.416
sub-24035	incongruent	1	0.777
sub-24035	incongruent	1	0.512
sub-24035	congruent	1	0.579
sub-24035	congruent	1	0.447
sub-24035	congruent	1	0.537
sub-24035	incongruent	1	0.552
sub-24035	incongruent	1	0.600
sub-24035	congruent	1	0.396
sub-24035	congruent	1	0.329
sub-24035	incongruent	0	0.353
sub-24035	incongruent	1	0.484
sub-24035	congruent	1	0.450
sub-24035	congruent	1	0.579
sub-24035	incongruent	1	0.671
sub-24035	congruent	1	0.566
sub-24035	incongruent	1	0.710
sub-24035	congruent	1	0.580
sub-24035	incongruent	1	0.394
sub-24035	congruent	1	0.406
sub-24035	congruent	1	0.374
sub-24035	congruent	1	0.335
sub-24035	incongruent	0	0.299
sub-24035	incongruent	1	0.614
sub-24035	incongruent	1	0.659
sub-24035	incongruent	1	0.575
sub-24035	incongruent	1	0.359
sub-24035	congruent	1	0.715
sub-24035	congruent	1	0.444
sub-24035	incongruent	1	0.871
sub-24035	incongruent	1	0.658
sub-24035	congruent	1	0.666
sub-24035	incongruent	1	0.599
sub-24035	incongruent	1	0.494
sub-24035	congruent	1	0.564
sub-24035	incongruent	1	0.615
sub-24035	congruent	1	0.509
sub-24035	congruent	1	0.443
sub-24035	congruent	0	0.405
sub-24035	congruent	1	0.394
sub-24035	incongruent	1	0.666
sub-24035	congruent	1	0.397
sub-24035	incongruent	1	0.535
sub-24035	congruent	1	0.476
sub-24035	congruent	1	0.452
sub-24035	congruent	1	0.343
sub-24035	incongruent	1	0.756
sub-24035	incongruent	1	0.568
sub-24035	incongruent	1	0.598
sub-24035	congruent	0	0.434
sub-24035	incongruent	1	0.820
sub-24035	congruent	0	0.410
sub-24035	incongruent	1	0.663
sub-24035	congruent	1	0.351
sub-24035	incongruent	1	0.727
sub-24035	congruent	1	0.466
sub-24035	incongruent	1	0.562
sub-24035	incongruent	1	0.522
sub-24035	congruent	1	0.432
sub-24035	congruent	1	0.399
sub-24035	congruent	1	0.361
sub-24035	congruent	1	0.335
sub-24035	incongruent	1	0.556
sub-24035	incongruent	1	0.456
sub-24035	congruent	1	0.454
sub-24035	incongruent	1	0.943
sub-24035	congruent	1	0.676
sub-24035	congruent	1	0.357
sub-24035	incongruent	1	0.552
sub-24035	congruent	1	0.404
sub-24035	congruent	1	0.366
sub-24035	congruent	1	0.366
sub-24035	incongruent	1	0.615
sub-24035	congruent	1	0.393
sub-24035	incongruent	1	0.539
sub-24035	incongruent	1	0.958
sub-24035	congruent	1	0.374
sub-24035	congruent	1	0.409
sub-24035	congruent	1	0.302
sub-24035	incongruent	0	0.530
sub-24035	incongruent	1	0.660
sub-24035	congruent	0	0.389
sub-24035	congruent	1	0.574
sub-24035	incongruent	1	0.614
sub-24035	incongruent	1	0.586
sub-24035	incongruent	1	0.534
sub-24035	incongruent	1	0.542
sub-24035	incongruent	1	0.828
sub-24035	incongruent	0	0.549
sub-24035	congruent	1	0.379
sub-24035	incongruent	1	0.595
sub-24035	incongruent	1	0.624
sub-24035	incongruent	1	0.549
sub-24035	incongruent	1	0.535
sub-24035	congruent	1	0.570
sub-24035	congruent	1	0.528
sub-24035	incongruent	1	0.591
sub-24035	incongruent	1	0.938
sub-24035	incongruent	1	0.941
sub-24035	incongruent	1	0.603
sub-24035	congruent	1	0.610
sub-24035	congruent	1	0.458
sub-24035	congruent	1	0.505
sub-24035	incongruent	1	0.727
sub-24035	incongruent	1	0.662
sub-24035	congruent	1	0.571
sub-24035	congruent	1	0.390
sub-24035	incongruent	1	0.557
sub-24035	congruent	1	0.430
sub-24035	incongruent	0	0.630
sub-24035	congruent	1	0.429
sub-24035	congruent	1	0.481
sub-24035	congruent	1	0.313
sub-24035	congruent	1	0.460
sub-24035	congruent	1	0.372
sub-24035	congruent	1	0.415
sub-24035	congruent	1	0.457
sub-24035	incongruent	1	0.696
sub-24035	incongruent	1	0.612
sub-24035	congruent	1	0.430
sub-24035	incongruent	1	0.687
sub-24035	incongruent	1	0.826
sub-24035	congruent	1	0.462
sub-24035	incongruent	1	0.850
sub-24035	incongruent	1	0.645
sub-24035	congruent	1	0.423
