onset	duration	startTime	stopTime	eventIdentifier	trial_type	trial_number	block_number	is_practice	fixation_color	cue_side	aoi_correct	aoi_incorrect
0.138	2.0	1134812	1136850	ShowFixation	ANTI	1	1	True	red	460	[405 885 405 675]	[1035 1515  405  675]
2.176	0.2	1136850	1137086	BlankScreen	ANTI	1	1	True	red	460	[405 885 405 675]	[1035 1515  405  675]
2.412	1.0	1137086	1138126	ELCue	ANTI	1	1	True	red	460	[405 885 405 675]	[1035 1515  405  675]
3.873	6.0	1138547	1145155	ShowFixation	VGS	2	1	True	lime	180	[405 885 405 675]	[1035 1515  405  675]
10.481	0.2	1145155	1145394	BlankScreen	VGS	2	1	True	lime	180	[405 885 405 675]	[1035 1515  405  675]
10.72	1.0	1145394	1146435	ELCue	VGS	2	1	True	lime	180	[405 885 405 675]	[1035 1515  405  675]
12.168	6.0	1146842	1153479	ShowFixation	VGS	3	1	True	lime	460	[1035 1515  405  675]	[405 885 405 675]
18.805	0.2	1153479	1153719	BlankScreen	VGS	3	1	True	lime	460	[1035 1515  405  675]	[405 885 405 675]
19.045	1.0	1153719	1154759	ELCue	VGS	3	1	True	lime	460	[1035 1515  405  675]	[405 885 405 675]
20.472	6.0	1155146	1161788	ShowFixation	VGS	4	1	True	lime	600	[1350 1830  405  675]	[ 90 570 405 675]
27.114	0.2	1161788	1162027	BlankScreen	VGS	4	1	True	lime	600	[1350 1830  405  675]	[ 90 570 405 675]
27.353	1.0	1162027	1163068	ELCue	VGS	4	1	True	lime	600	[1350 1830  405  675]	[ 90 570 405 675]
28.799	6.0	1163473	1170113	ShowFixation	ANTI	5	1	True	red	40	[1350 1830  405  675]	[ 90 570 405 675]
35.439	0.2	1170113	1170352	BlankScreen	ANTI	5	1	True	red	40	[1350 1830  405  675]	[ 90 570 405 675]
35.678	1.0	1170352	1171393	ELCue	ANTI	5	1	True	red	40	[1350 1830  405  675]	[ 90 570 405 675]
37.12	6.0	1171794	1178437	ShowFixation	ANTI	6	1	True	red	600	[ 90 570 405 675]	[1350 1830  405  675]
43.763	0.2	1178437	1178677	BlankScreen	ANTI	6	1	True	red	600	[ 90 570 405 675]	[1350 1830  405  675]
44.003	1.0	1178677	1179718	ELCue	ANTI	6	1	True	red	600	[ 90 570 405 675]	[1350 1830  405  675]
45.448	6.0	1180122	1186762	ShowFixation	VGS	7	1	True	lime	40	[ 90 570 405 675]	[1350 1830  405  675]
52.088	0.2	1186762	1187002	BlankScreen	VGS	7	1	True	lime	40	[ 90 570 405 675]	[1350 1830  405  675]
52.328	1.0	1187002	1188042	ELCue	VGS	7	1	True	lime	40	[ 90 570 405 675]	[1350 1830  405  675]
53.771	2.0	1188445	1191070	ShowFixation	VGS	8	1	True	lime	600	[1350 1830  405  675]	[ 90 570 405 675]
56.396	0.2	1191070	1191289	BlankScreen	VGS	8	1	True	lime	600	[1350 1830  405  675]	[ 90 570 405 675]
56.615	1.0	1191289	1192313	ELCue	VGS	8	1	True	lime	600	[1350 1830  405  675]	[ 90 570 405 675]
58.041	6.0	1192715	1199358	ShowFixation	ANTI	9	1	True	red	180	[1035 1515  405  675]	[405 885 405 675]
64.684	0.2	1199358	1199597	BlankScreen	ANTI	9	1	True	red	180	[1035 1515  405  675]	[405 885 405 675]
64.923	1.0	1199597	1200638	ELCue	ANTI	9	1	True	red	180	[1035 1515  405  675]	[405 885 405 675]
66.372	2.0	1201046	1203683	ShowFixation	ANTI	10	1	True	red	180	[1035 1515  405  675]	[405 885 405 675]
69.009	0.2	1203683	1203918	BlankScreen	ANTI	10	1	True	red	180	[1035 1515  405  675]	[405 885 405 675]
69.244	1.0	1203918	1204959	ELCue	ANTI	10	1	True	red	180	[1035 1515  405  675]	[405 885 405 675]
70.692	2.0	1205366	1208004	ShowFixation	VGS	11	1	True	lime	40	[ 90 570 405 675]	[1350 1830  405  675]
73.33	0.2	1208004	1208239	BlankScreen	VGS	11	1	True	lime	40	[ 90 570 405 675]	[1350 1830  405  675]
73.566	1.0	1208240	1209280	ELCue	VGS	11	1	True	lime	40	[ 90 570 405 675]	[1350 1830  405  675]
75.011	2.0	1209685	1212308	ShowFixation	ANTI	12	1	True	red	40	[1350 1830  405  675]	[ 90 570 405 675]
77.635	0.2	1212309	1212527	BlankScreen	ANTI	12	1	True	red	40	[1350 1830  405  675]	[ 90 570 405 675]
77.854	1.0	1212528	1213551	ELCue	ANTI	12	1	True	red	40	[1350 1830  405  675]	[ 90 570 405 675]
79.283	6.0	1213957	1220597	ShowFixation	ANTI	13	1	True	red	460	[405 885 405 675]	[1035 1515  405  675]
85.923	0.2	1220597	1220836	BlankScreen	ANTI	13	1	True	red	460	[405 885 405 675]	[1035 1515  405  675]
86.162	1.0	1220836	1221876	ELCue	ANTI	13	1	True	red	460	[405 885 405 675]	[1035 1515  405  675]
87.61	2.0	1222284	1224922	ShowFixation	ANTI	14	1	True	red	600	[ 90 570 405 675]	[1350 1830  405  675]
90.248	0.2	1224922	1225157	BlankScreen	ANTI	14	1	True	red	600	[ 90 570 405 675]	[1350 1830  405  675]
90.483	1.0	1225157	1226197	ELCue	ANTI	14	1	True	red	600	[ 90 570 405 675]	[1350 1830  405  675]
91.931	2.0	1226605	1229242	ShowFixation	VGS	15	1	True	lime	460	[1035 1515  405  675]	[405 885 405 675]
94.568	0.2	1229242	1229478	BlankScreen	VGS	15	1	True	lime	460	[1035 1515  405  675]	[405 885 405 675]
94.804	1.0	1229478	1230518	ELCue	VGS	15	1	True	lime	460	[1035 1515  405  675]	[405 885 405 675]
96.246	2.0	1230920	1233563	ShowFixation	VGS	16	1	True	lime	180	[405 885 405 675]	[1035 1515  405  675]
98.889	0.2	1233563	1233799	BlankScreen	VGS	16	1	True	lime	180	[405 885 405 675]	[1035 1515  405  675]
99.125	1.0	1233799	1234839	ELCue	VGS	16	1	True	lime	180	[405 885 405 675]	[1035 1515  405  675]
128.367	6.0	1263041	1269078	ShowFixation	VGS	17	2	False	lime	460	[1035 1515  405  675]	[405 885 405 675]
134.404	0.2	1269078	1269317	BlankScreen	VGS	17	2	False	lime	460	[1035 1515  405  675]	[405 885 405 675]
134.643	1.0	1269317	1270317	ELCue	VGS	17	2	False	lime	460	[1035 1515  405  675]	[405 885 405 675]
136.036	2.0	1270710	1272735	ShowFixation	VGS	18	2	False	lime	600	[1350 1830  405  675]	[ 90 570 405 675]
138.061	0.2	1272735	1272971	BlankScreen	VGS	18	2	False	lime	600	[1350 1830  405  675]	[ 90 570 405 675]
138.297	1.0	1272971	1273971	ELCue	VGS	18	2	False	lime	600	[1350 1830  405  675]	[ 90 570 405 675]
139.681	2.0	1274355	1276389	ShowFixation	VGS	19	2	False	lime	180	[405 885 405 675]	[1035 1515  405  675]
141.715	0.2	1276389	1276624	BlankScreen	VGS	19	2	False	lime	180	[405 885 405 675]	[1035 1515  405  675]
141.95	1.0	1276624	1277624	ELCue	VGS	19	2	False	lime	180	[405 885 405 675]	[1035 1515  405  675]
143.358	2.0	1278032	1280059	ShowFixation	VGS	20	2	False	lime	460	[1035 1515  405  675]	[405 885 405 675]
145.385	0.2	1280059	1280295	BlankScreen	VGS	20	2	False	lime	460	[1035 1515  405  675]	[405 885 405 675]
145.621	1.0	1280295	1281295	ELCue	VGS	20	2	False	lime	460	[1035 1515  405  675]	[405 885 405 675]
147.031	6.0	1281705	1287729	ShowFixation	VGS	21	2	False	lime	40	[ 90 570 405 675]	[1350 1830  405  675]
153.055	0.2	1287729	1287969	BlankScreen	VGS	21	2	False	lime	40	[ 90 570 405 675]	[1350 1830  405  675]
153.295	1.0	1287969	1288969	ELCue	VGS	21	2	False	lime	40	[ 90 570 405 675]	[1350 1830  405  675]
154.707	2.0	1289381	1291420	ShowFixation	ANTI	22	2	False	red	40	[1350 1830  405  675]	[ 90 570 405 675]
156.746	0.2	1291420	1291656	BlankScreen	ANTI	22	2	False	red	40	[1350 1830  405  675]	[ 90 570 405 675]
156.982	1.0	1291656	1292656	ELCue	ANTI	22	2	False	red	40	[1350 1830  405  675]	[ 90 570 405 675]
158.358	6.0	1293032	1299057	ShowFixation	ANTI	23	2	False	red	40	[1350 1830  405  675]	[ 90 570 405 675]
164.383	0.2	1299057	1299297	BlankScreen	ANTI	23	2	False	red	40	[1350 1830  405  675]	[ 90 570 405 675]
164.623	1.0	1299297	1300297	ELCue	ANTI	23	2	False	red	40	[1350 1830  405  675]	[ 90 570 405 675]
166.031	6.0	1300705	1306732	ShowFixation	ANTI	24	2	False	red	600	[ 90 570 405 675]	[1350 1830  405  675]
172.058	0.2	1306732	1306971	BlankScreen	ANTI	24	2	False	red	600	[ 90 570 405 675]	[1350 1830  405  675]
172.297	1.0	1306971	1307971	ELCue	ANTI	24	2	False	red	600	[ 90 570 405 675]	[1350 1830  405  675]
173.707	2.0	1308381	1310406	ShowFixation	ANTI	25	2	False	red	600	[ 90 570 405 675]	[1350 1830  405  675]
175.732	0.2	1310406	1310641	BlankScreen	ANTI	25	2	False	red	600	[ 90 570 405 675]	[1350 1830  405  675]
175.967	1.0	1310641	1311641	ELCue	ANTI	25	2	False	red	600	[ 90 570 405 675]	[1350 1830  405  675]
177.376	2.0	1312050	1314076	ShowFixation	ANTI	26	2	False	red	460	[405 885 405 675]	[1035 1515  405  675]
179.402	0.2	1314076	1314311	BlankScreen	ANTI	26	2	False	red	460	[405 885 405 675]	[1035 1515  405  675]
179.637	1.0	1314311	1315311	ELCue	ANTI	26	2	False	red	460	[405 885 405 675]	[1035 1515  405  675]
181.045	2.0	1315719	1317746	ShowFixation	VGS	27	2	False	lime	600	[1350 1830  405  675]	[ 90 570 405 675]
183.072	0.2	1317746	1317982	BlankScreen	VGS	27	2	False	lime	600	[1350 1830  405  675]	[ 90 570 405 675]
183.308	1.0	1317982	1318982	ELCue	VGS	27	2	False	lime	600	[1350 1830  405  675]	[ 90 570 405 675]
184.719	2.0	1319393	1321433	ShowFixation	ANTI	28	2	False	red	460	[405 885 405 675]	[1035 1515  405  675]
186.759	0.2	1321433	1321669	BlankScreen	ANTI	28	2	False	red	460	[405 885 405 675]	[1035 1515  405  675]
186.995	1.0	1321669	1322669	ELCue	ANTI	28	2	False	red	460	[405 885 405 675]	[1035 1515  405  675]
188.406	6.0	1323080	1329120	ShowFixation	ANTI	29	2	False	red	180	[1035 1515  405  675]	[405 885 405 675]
194.446	0.2	1329120	1329360	BlankScreen	ANTI	29	2	False	red	180	[1035 1515  405  675]	[405 885 405 675]
194.686	1.0	1329360	1330360	ELCue	ANTI	29	2	False	red	180	[1035 1515  405  675]	[405 885 405 675]
196.089	6.0	1330763	1336795	ShowFixation	VGS	30	2	False	lime	600	[1350 1830  405  675]	[ 90 570 405 675]
202.122	0.2	1336796	1337034	BlankScreen	VGS	30	2	False	lime	600	[1350 1830  405  675]	[ 90 570 405 675]
202.361	1.0	1337035	1338035	ELCue	VGS	30	2	False	lime	600	[1350 1830  405  675]	[ 90 570 405 675]
203.769	2.0	1338443	1340470	ShowFixation	VGS	31	2	False	lime	180	[405 885 405 675]	[1035 1515  405  675]
205.796	0.2	1340470	1340704	BlankScreen	VGS	31	2	False	lime	180	[405 885 405 675]	[1035 1515  405  675]
206.03	1.0	1340704	1341704	ELCue	VGS	31	2	False	lime	180	[405 885 405 675]	[1035 1515  405  675]
207.44	6.0	1342114	1348140	ShowFixation	ANTI	32	2	False	red	460	[405 885 405 675]	[1035 1515  405  675]
213.466	0.2	1348140	1348379	BlankScreen	ANTI	32	2	False	red	460	[405 885 405 675]	[1035 1515  405  675]
213.705	1.0	1348379	1349379	ELCue	ANTI	32	2	False	red	460	[405 885 405 675]	[1035 1515  405  675]
215.113	2.0	1349787	1351814	ShowFixation	VGS	33	2	False	lime	40	[ 90 570 405 675]	[1350 1830  405  675]
217.14	0.2	1351814	1352050	BlankScreen	VGS	33	2	False	lime	40	[ 90 570 405 675]	[1350 1830  405  675]
217.376	1.0	1352050	1353050	ELCue	VGS	33	2	False	lime	40	[ 90 570 405 675]	[1350 1830  405  675]
218.783	6.0	1353457	1359485	ShowFixation	VGS	34	2	False	lime	460	[1035 1515  405  675]	[405 885 405 675]
224.811	0.2	1359485	1359724	BlankScreen	VGS	34	2	False	lime	460	[1035 1515  405  675]	[405 885 405 675]
225.05	1.0	1359724	1360724	ELCue	VGS	34	2	False	lime	460	[1035 1515  405  675]	[405 885 405 675]
226.459	6.0	1361133	1367159	ShowFixation	VGS	35	2	False	lime	600	[1350 1830  405  675]	[ 90 570 405 675]
232.485	0.2	1367159	1367398	BlankScreen	VGS	35	2	False	lime	600	[1350 1830  405  675]	[ 90 570 405 675]
232.724	1.0	1367398	1368398	ELCue	VGS	35	2	False	lime	600	[1350 1830  405  675]	[ 90 570 405 675]
234.131	2.0	1368805	1370833	ShowFixation	ANTI	36	2	False	red	180	[1035 1515  405  675]	[405 885 405 675]
236.159	0.2	1370833	1371068	BlankScreen	ANTI	36	2	False	red	180	[1035 1515  405  675]	[405 885 405 675]
236.394	1.0	1371068	1372068	ELCue	ANTI	36	2	False	red	180	[1035 1515  405  675]	[405 885 405 675]
237.807	6.0	1372481	1378520	ShowFixation	ANTI	37	2	False	red	180	[1035 1515  405  675]	[405 885 405 675]
243.846	0.2	1378520	1378759	BlankScreen	ANTI	37	2	False	red	180	[1035 1515  405  675]	[405 885 405 675]
244.085	1.0	1378759	1379759	ELCue	ANTI	37	2	False	red	180	[1035 1515  405  675]	[405 885 405 675]
245.496	6.0	1380170	1386211	ShowFixation	ANTI	38	2	False	red	40	[1350 1830  405  675]	[ 90 570 405 675]
251.537	0.2	1386211	1386450	BlankScreen	ANTI	38	2	False	red	40	[1350 1830  405  675]	[ 90 570 405 675]
251.776	1.0	1386450	1387450	ELCue	ANTI	38	2	False	red	40	[1350 1830  405  675]	[ 90 570 405 675]
253.18	6.0	1387854	1393885	ShowFixation	ANTI	39	2	False	red	460	[405 885 405 675]	[1035 1515  405  675]
259.211	0.2	1393885	1394124	BlankScreen	ANTI	39	2	False	red	460	[405 885 405 675]	[1035 1515  405  675]
259.45	1.0	1394124	1395124	ELCue	ANTI	39	2	False	red	460	[405 885 405 675]	[1035 1515  405  675]
260.855	2.0	1395529	1397559	ShowFixation	VGS	40	2	False	lime	40	[ 90 570 405 675]	[1350 1830  405  675]
262.885	0.2	1397559	1397795	BlankScreen	VGS	40	2	False	lime	40	[ 90 570 405 675]	[1350 1830  405  675]
263.121	1.0	1397795	1398795	ELCue	VGS	40	2	False	lime	40	[ 90 570 405 675]	[1350 1830  405  675]
264.529	6.0	1399203	1405230	ShowFixation	VGS	41	2	False	lime	180	[405 885 405 675]	[1035 1515  405  675]
270.556	0.2	1405230	1405469	BlankScreen	VGS	41	2	False	lime	180	[405 885 405 675]	[1035 1515  405  675]
270.795	1.0	1405469	1406469	ELCue	VGS	41	2	False	lime	180	[405 885 405 675]	[1035 1515  405  675]
272.204	2.0	1406878	1408904	ShowFixation	ANTI	42	2	False	red	40	[1350 1830  405  675]	[ 90 570 405 675]
274.23	0.2	1408904	1409139	BlankScreen	ANTI	42	2	False	red	40	[1350 1830  405  675]	[ 90 570 405 675]
274.465	1.0	1409139	1410139	ELCue	ANTI	42	2	False	red	40	[1350 1830  405  675]	[ 90 570 405 675]
275.874	2.0	1410548	1412574	ShowFixation	VGS	43	2	False	lime	460	[1035 1515  405  675]	[405 885 405 675]
277.9	0.2	1412574	1412810	BlankScreen	VGS	43	2	False	lime	460	[1035 1515  405  675]	[405 885 405 675]
278.136	1.0	1412810	1413810	ELCue	VGS	43	2	False	lime	460	[1035 1515  405  675]	[405 885 405 675]
279.53	6.0	1414204	1420244	ShowFixation	VGS	44	2	False	lime	40	[ 90 570 405 675]	[1350 1830  405  675]
285.57	0.2	1420244	1420484	BlankScreen	VGS	44	2	False	lime	40	[ 90 570 405 675]	[1350 1830  405  675]
285.81	1.0	1420484	1421484	ELCue	VGS	44	2	False	lime	40	[ 90 570 405 675]	[1350 1830  405  675]
287.219	2.0	1421893	1423919	ShowFixation	ANTI	45	2	False	red	600	[ 90 570 405 675]	[1350 1830  405  675]
289.245	0.2	1423919	1424154	BlankScreen	ANTI	45	2	False	red	600	[ 90 570 405 675]	[1350 1830  405  675]
289.48	1.0	1424154	1425154	ELCue	ANTI	45	2	False	red	600	[ 90 570 405 675]	[1350 1830  405  675]
290.884	6.0	1425558	1431589	ShowFixation	ANTI	46	2	False	red	600	[ 90 570 405 675]	[1350 1830  405  675]
296.915	0.2	1431589	1431828	BlankScreen	ANTI	46	2	False	red	600	[ 90 570 405 675]	[1350 1830  405  675]
297.154	1.0	1431828	1432828	ELCue	ANTI	46	2	False	red	600	[ 90 570 405 675]	[1350 1830  405  675]
298.561	2.0	1433235	1435263	ShowFixation	ANTI	47	2	False	red	180	[1035 1515  405  675]	[405 885 405 675]
300.589	0.2	1435263	1435499	BlankScreen	ANTI	47	2	False	red	180	[1035 1515  405  675]	[405 885 405 675]
300.825	1.0	1435499	1436499	ELCue	ANTI	47	2	False	red	180	[1035 1515  405  675]	[405 885 405 675]
302.233	6.0	1436907	1442934	ShowFixation	VGS	48	2	False	lime	180	[405 885 405 675]	[1035 1515  405  675]
308.26	0.2	1442934	1443173	BlankScreen	VGS	48	2	False	lime	180	[405 885 405 675]	[1035 1515  405  675]
308.499	1.0	1443173	1444173	ELCue	VGS	48	2	False	lime	180	[405 885 405 675]	[1035 1515  405  675]
376.898	6.0	1511572	1517608	ShowFixation	VGS	49	3	False	lime	180	[405 885 405 675]	[1035 1515  405  675]
382.934	0.2	1517608	1517847	BlankScreen	VGS	49	3	False	lime	180	[405 885 405 675]	[1035 1515  405  675]
383.173	1.0	1517847	1518847	ELCue	VGS	49	3	False	lime	180	[405 885 405 675]	[1035 1515  405  675]
384.55	6.0	1519224	1525249	ShowFixation	VGS	50	3	False	lime	460	[1035 1515  405  675]	[405 885 405 675]
390.575	0.2	1525249	1525488	BlankScreen	VGS	50	3	False	lime	460	[1035 1515  405  675]	[405 885 405 675]
390.814	1.0	1525488	1526488	ELCue	VGS	50	3	False	lime	460	[1035 1515  405  675]	[405 885 405 675]
392.189	2.0	1526863	1528890	ShowFixation	ANTI	51	3	False	red	40	[1350 1830  405  675]	[ 90 570 405 675]
394.216	0.2	1528890	1529125	BlankScreen	ANTI	51	3	False	red	40	[1350 1830  405  675]	[ 90 570 405 675]
394.451	1.0	1529125	1530125	ELCue	ANTI	51	3	False	red	40	[1350 1830  405  675]	[ 90 570 405 675]
395.859	2.0	1530533	1532560	ShowFixation	VGS	52	3	False	lime	40	[ 90 570 405 675]	[1350 1830  405  675]
397.886	0.2	1532560	1532795	BlankScreen	VGS	52	3	False	lime	40	[ 90 570 405 675]	[1350 1830  405  675]
398.121	1.0	1532795	1533795	ELCue	VGS	52	3	False	lime	40	[ 90 570 405 675]	[1350 1830  405  675]
399.531	6.0	1534205	1540230	ShowFixation	ANTI	53	3	False	red	180	[1035 1515  405  675]	[405 885 405 675]
405.556	0.2	1540230	1540470	BlankScreen	ANTI	53	3	False	red	180	[1035 1515  405  675]	[405 885 405 675]
405.796	1.0	1540470	1541470	ELCue	ANTI	53	3	False	red	180	[1035 1515  405  675]	[405 885 405 675]
407.186	2.0	1541860	1543888	ShowFixation	ANTI	54	3	False	red	460	[405 885 405 675]	[1035 1515  405  675]
409.214	0.2	1543888	1544123	BlankScreen	ANTI	54	3	False	red	460	[405 885 405 675]	[1035 1515  405  675]
409.449	1.0	1544123	1545123	ELCue	ANTI	54	3	False	red	460	[405 885 405 675]	[1035 1515  405  675]
410.862	6.0	1545536	1551575	ShowFixation	ANTI	55	3	False	red	40	[1350 1830  405  675]	[ 90 570 405 675]
416.901	0.2	1551575	1551814	BlankScreen	ANTI	55	3	False	red	40	[1350 1830  405  675]	[ 90 570 405 675]
417.14	1.0	1551814	1552814	ELCue	ANTI	55	3	False	red	40	[1350 1830  405  675]	[ 90 570 405 675]
418.551	2.0	1553225	1555249	ShowFixation	ANTI	56	3	False	red	460	[405 885 405 675]	[1035 1515  405  675]
420.575	0.2	1555249	1555484	BlankScreen	ANTI	56	3	False	red	460	[405 885 405 675]	[1035 1515  405  675]
420.81	1.0	1555484	1556484	ELCue	ANTI	56	3	False	red	460	[405 885 405 675]	[1035 1515  405  675]
422.221	2.0	1556895	1558919	ShowFixation	VGS	57	3	False	lime	600	[1350 1830  405  675]	[ 90 570 405 675]
424.245	0.2	1558919	1559155	BlankScreen	VGS	57	3	False	lime	600	[1350 1830  405  675]	[ 90 570 405 675]
424.481	1.0	1559155	1560155	ELCue	VGS	57	3	False	lime	600	[1350 1830  405  675]	[ 90 570 405 675]
425.892	2.0	1560566	1562606	ShowFixation	VGS	58	3	False	lime	40	[ 90 570 405 675]	[1350 1830  405  675]
427.932	0.2	1562606	1562842	BlankScreen	VGS	58	3	False	lime	40	[ 90 570 405 675]	[1350 1830  405  675]
428.168	1.0	1562842	1563842	ELCue	VGS	58	3	False	lime	40	[ 90 570 405 675]	[1350 1830  405  675]
429.579	6.0	1564253	1570293	ShowFixation	VGS	59	3	False	lime	600	[1350 1830  405  675]	[ 90 570 405 675]
435.619	0.2	1570293	1570533	BlankScreen	VGS	59	3	False	lime	600	[1350 1830  405  675]	[ 90 570 405 675]
435.859	1.0	1570533	1571533	ELCue	VGS	59	3	False	lime	600	[1350 1830  405  675]	[ 90 570 405 675]
437.266	2.0	1571940	1573968	ShowFixation	VGS	60	3	False	lime	180	[405 885 405 675]	[1035 1515  405  675]
439.294	0.2	1573968	1574203	BlankScreen	VGS	60	3	False	lime	180	[405 885 405 675]	[1035 1515  405  675]
439.529	1.0	1574203	1575203	ELCue	VGS	60	3	False	lime	180	[405 885 405 675]	[1035 1515  405  675]
440.94	2.0	1575614	1577638	ShowFixation	VGS	61	3	False	lime	180	[405 885 405 675]	[1035 1515  405  675]
442.964	0.2	1577638	1577873	BlankScreen	VGS	61	3	False	lime	180	[405 885 405 675]	[1035 1515  405  675]
443.199	1.0	1577873	1578873	ELCue	VGS	61	3	False	lime	180	[405 885 405 675]	[1035 1515  405  675]
444.591	2.0	1579265	1581292	ShowFixation	VGS	62	3	False	lime	600	[1350 1830  405  675]	[ 90 570 405 675]
446.618	0.2	1581292	1581527	BlankScreen	VGS	62	3	False	lime	600	[1350 1830  405  675]	[ 90 570 405 675]
446.853	1.0	1581527	1582527	ELCue	VGS	62	3	False	lime	600	[1350 1830  405  675]	[ 90 570 405 675]
448.247	6.0	1582921	1588945	ShowFixation	ANTI	63	3	False	red	600	[ 90 570 405 675]	[1350 1830  405  675]
454.271	0.2	1588945	1589184	BlankScreen	ANTI	63	3	False	red	600	[ 90 570 405 675]	[1350 1830  405  675]
454.51	1.0	1589184	1590184	ELCue	ANTI	63	3	False	red	600	[ 90 570 405 675]	[1350 1830  405  675]
455.922	2.0	1590596	1592636	ShowFixation	VGS	64	3	False	lime	460	[1035 1515  405  675]	[405 885 405 675]
457.963	0.2	1592637	1592871	BlankScreen	VGS	64	3	False	lime	460	[1035 1515  405  675]	[405 885 405 675]
458.198	1.0	1592872	1593872	ELCue	VGS	64	3	False	lime	460	[1035 1515  405  675]	[405 885 405 675]
459.608	6.0	1594282	1600307	ShowFixation	VGS	65	3	False	lime	40	[ 90 570 405 675]	[1350 1830  405  675]
465.633	0.2	1600307	1600546	BlankScreen	VGS	65	3	False	lime	40	[ 90 570 405 675]	[1350 1830  405  675]
465.873	1.0	1600547	1601547	ELCue	VGS	65	3	False	lime	40	[ 90 570 405 675]	[1350 1830  405  675]
467.334	2.0	1602008	1604047	ShowFixation	ANTI	66	3	False	red	600	[ 90 570 405 675]	[1350 1830  405  675]
469.374	0.2	1604048	1604283	BlankScreen	ANTI	66	3	False	red	600	[ 90 570 405 675]	[1350 1830  405  675]
469.61	1.0	1604284	1605284	ELCue	ANTI	66	3	False	red	600	[ 90 570 405 675]	[1350 1830  405  675]
471.018	6.0	1605692	1611719	ShowFixation	ANTI	67	3	False	red	600	[ 90 570 405 675]	[1350 1830  405  675]
477.045	0.2	1611719	1611958	BlankScreen	ANTI	67	3	False	red	600	[ 90 570 405 675]	[1350 1830  405  675]
477.284	1.0	1611958	1612958	ELCue	ANTI	67	3	False	red	600	[ 90 570 405 675]	[1350 1830  405  675]
478.693	6.0	1613367	1619393	ShowFixation	ANTI	68	3	False	red	460	[405 885 405 675]	[1035 1515  405  675]
484.719	0.2	1619393	1619632	BlankScreen	ANTI	68	3	False	red	460	[405 885 405 675]	[1035 1515  405  675]
484.958	1.0	1619632	1620632	ELCue	ANTI	68	3	False	red	460	[405 885 405 675]	[1035 1515  405  675]
486.369	2.0	1621043	1623084	ShowFixation	ANTI	69	3	False	red	180	[1035 1515  405  675]	[405 885 405 675]
488.41	0.2	1623084	1623319	BlankScreen	ANTI	69	3	False	red	180	[1035 1515  405  675]	[405 885 405 675]
488.645	1.0	1623319	1624319	ELCue	ANTI	69	3	False	red	180	[1035 1515  405  675]	[405 885 405 675]
490.053	6.0	1624727	1630754	ShowFixation	VGS	70	3	False	lime	460	[1035 1515  405  675]	[405 885 405 675]
496.08	0.2	1630754	1630993	BlankScreen	VGS	70	3	False	lime	460	[1035 1515  405  675]	[405 885 405 675]
496.319	1.0	1630993	1631993	ELCue	VGS	70	3	False	lime	460	[1035 1515  405  675]	[405 885 405 675]
497.713	6.0	1632387	1638428	ShowFixation	ANTI	71	3	False	red	180	[1035 1515  405  675]	[405 885 405 675]
503.754	0.2	1638428	1638668	BlankScreen	ANTI	71	3	False	red	180	[1035 1515  405  675]	[405 885 405 675]
503.994	1.0	1638668	1639668	ELCue	ANTI	71	3	False	red	180	[1035 1515  405  675]	[405 885 405 675]
505.398	6.0	1640072	1646102	ShowFixation	VGS	72	3	False	lime	600	[1350 1830  405  675]	[ 90 570 405 675]
511.428	0.2	1646102	1646342	BlankScreen	VGS	72	3	False	lime	600	[1350 1830  405  675]	[ 90 570 405 675]
511.668	1.0	1646342	1647342	ELCue	VGS	72	3	False	lime	600	[1350 1830  405  675]	[ 90 570 405 675]
513.074	6.0	1647748	1653777	ShowFixation	VGS	73	3	False	lime	40	[ 90 570 405 675]	[1350 1830  405  675]
519.103	0.2	1653777	1654016	BlankScreen	VGS	73	3	False	lime	40	[ 90 570 405 675]	[1350 1830  405  675]
519.342	1.0	1654016	1655016	ELCue	VGS	73	3	False	lime	40	[ 90 570 405 675]	[1350 1830  405  675]
520.753	2.0	1655427	1657468	ShowFixation	VGS	74	3	False	lime	460	[1035 1515  405  675]	[405 885 405 675]
522.794	0.2	1657468	1657703	BlankScreen	VGS	74	3	False	lime	460	[1035 1515  405  675]	[405 885 405 675]
523.029	1.0	1657703	1658703	ELCue	VGS	74	3	False	lime	460	[1035 1515  405  675]	[405 885 405 675]
524.44	2.0	1659114	1661155	ShowFixation	ANTI	75	3	False	red	600	[ 90 570 405 675]	[1350 1830  405  675]
526.481	0.2	1661155	1661390	BlankScreen	ANTI	75	3	False	red	600	[ 90 570 405 675]	[1350 1830  405  675]
526.716	1.0	1661390	1662390	ELCue	ANTI	75	3	False	red	600	[ 90 570 405 675]	[1350 1830  405  675]
528.127	6.0	1662801	1668842	ShowFixation	ANTI	76	3	False	red	460	[405 885 405 675]	[1035 1515  405  675]
534.168	0.2	1668842	1669081	BlankScreen	ANTI	76	3	False	red	460	[405 885 405 675]	[1035 1515  405  675]
534.407	1.0	1669081	1670081	ELCue	ANTI	76	3	False	red	460	[405 885 405 675]	[1035 1515  405  675]
535.817	6.0	1670491	1676516	ShowFixation	VGS	77	3	False	lime	180	[405 885 405 675]	[1035 1515  405  675]
541.842	0.2	1676516	1676755	BlankScreen	VGS	77	3	False	lime	180	[405 885 405 675]	[1035 1515  405  675]
542.081	1.0	1676755	1677755	ELCue	VGS	77	3	False	lime	180	[405 885 405 675]	[1035 1515  405  675]
543.492	6.0	1678166	1684190	ShowFixation	ANTI	78	3	False	red	40	[1350 1830  405  675]	[ 90 570 405 675]
549.516	0.2	1684190	1684429	BlankScreen	ANTI	78	3	False	red	40	[1350 1830  405  675]	[ 90 570 405 675]
549.755	1.0	1684429	1685429	ELCue	ANTI	78	3	False	red	40	[1350 1830  405  675]	[ 90 570 405 675]
551.166	2.0	1685840	1687864	ShowFixation	ANTI	79	3	False	red	180	[1035 1515  405  675]	[405 885 405 675]
553.19	0.2	1687864	1688100	BlankScreen	ANTI	79	3	False	red	180	[1035 1515  405  675]	[405 885 405 675]
553.426	1.0	1688100	1689100	ELCue	ANTI	79	3	False	red	180	[1035 1515  405  675]	[405 885 405 675]
554.819	2.0	1689493	1691518	ShowFixation	ANTI	80	3	False	red	40	[1350 1830  405  675]	[ 90 570 405 675]
556.844	0.2	1691518	1691753	BlankScreen	ANTI	80	3	False	red	40	[1350 1830  405  675]	[ 90 570 405 675]
557.079	1.0	1691753	1692753	ELCue	ANTI	80	3	False	red	40	[1350 1830  405  675]	[ 90 570 405 675]
606.443	2.0	1741117	1743153	ShowFixation	VGS	81	4	False	lime	180	[405 885 405 675]	[1035 1515  405  675]
608.479	0.2	1743153	1743388	BlankScreen	VGS	81	4	False	lime	180	[405 885 405 675]	[1035 1515  405  675]
608.714	1.0	1743388	1744388	ELCue	VGS	81	4	False	lime	180	[405 885 405 675]	[1035 1515  405  675]
610.124	6.0	1744798	1750823	ShowFixation	VGS	82	4	False	lime	600	[1350 1830  405  675]	[ 90 570 405 675]
616.149	0.2	1750823	1751063	BlankScreen	VGS	82	4	False	lime	600	[1350 1830  405  675]	[ 90 570 405 675]
616.389	1.0	1751063	1752063	ELCue	VGS	82	4	False	lime	600	[1350 1830  405  675]	[ 90 570 405 675]
617.796	6.0	1752470	1758498	ShowFixation	ANTI	83	4	False	red	600	[ 90 570 405 675]	[1350 1830  405  675]
623.824	0.2	1758498	1758737	BlankScreen	ANTI	83	4	False	red	600	[ 90 570 405 675]	[1350 1830  405  675]
624.063	1.0	1758737	1759737	ELCue	ANTI	83	4	False	red	600	[ 90 570 405 675]	[1350 1830  405  675]
625.47	6.0	1760144	1766172	ShowFixation	ANTI	84	4	False	red	460	[405 885 405 675]	[1035 1515  405  675]
631.498	0.2	1766172	1766411	BlankScreen	ANTI	84	4	False	red	460	[405 885 405 675]	[1035 1515  405  675]
631.737	1.0	1766411	1767411	ELCue	ANTI	84	4	False	red	460	[405 885 405 675]	[1035 1515  405  675]
633.129	6.0	1767803	1773829	ShowFixation	VGS	85	4	False	lime	40	[ 90 570 405 675]	[1350 1830  405  675]
639.155	0.2	1773829	1774069	BlankScreen	VGS	85	4	False	lime	40	[ 90 570 405 675]	[1350 1830  405  675]
639.395	1.0	1774069	1775069	ELCue	VGS	85	4	False	lime	40	[ 90 570 405 675]	[1350 1830  405  675]
640.8	6.0	1775474	1781504	ShowFixation	VGS	86	4	False	lime	460	[1035 1515  405  675]	[405 885 405 675]
646.83	0.2	1781504	1781743	BlankScreen	VGS	86	4	False	lime	460	[1035 1515  405  675]	[405 885 405 675]
647.069	1.0	1781743	1782743	ELCue	VGS	86	4	False	lime	460	[1035 1515  405  675]	[405 885 405 675]
648.474	2.0	1783148	1785178	ShowFixation	VGS	87	4	False	lime	40	[ 90 570 405 675]	[1350 1830  405  675]
650.504	0.2	1785178	1785413	BlankScreen	VGS	87	4	False	lime	40	[ 90 570 405 675]	[1350 1830  405  675]
650.739	1.0	1785413	1786413	ELCue	VGS	87	4	False	lime	40	[ 90 570 405 675]	[1350 1830  405  675]
652.148	6.0	1786822	1792848	ShowFixation	ANTI	88	4	False	red	40	[1350 1830  405  675]	[ 90 570 405 675]
658.174	0.2	1792848	1793087	BlankScreen	ANTI	88	4	False	red	40	[1350 1830  405  675]	[ 90 570 405 675]
658.413	1.0	1793087	1794087	ELCue	ANTI	88	4	False	red	40	[1350 1830  405  675]	[ 90 570 405 675]
659.822	6.0	1794496	1800522	ShowFixation	ANTI	89	4	False	red	460	[405 885 405 675]	[1035 1515  405  675]
665.848	0.2	1800522	1800762	BlankScreen	ANTI	89	4	False	red	460	[405 885 405 675]	[1035 1515  405  675]
666.088	1.0	1800762	1801762	ELCue	ANTI	89	4	False	red	460	[405 885 405 675]	[1035 1515  405  675]
667.499	2.0	1802173	1804213	ShowFixation	VGS	90	4	False	lime	460	[1035 1515  405  675]	[405 885 405 675]
669.539	0.2	1804213	1804449	BlankScreen	VGS	90	4	False	lime	460	[1035 1515  405  675]	[405 885 405 675]
669.775	1.0	1804449	1805449	ELCue	VGS	90	4	False	lime	460	[1035 1515  405  675]	[405 885 405 675]
671.186	2.0	1805860	1807900	ShowFixation	VGS	91	4	False	lime	600	[1350 1830  405  675]	[ 90 570 405 675]
673.226	0.2	1807900	1808136	BlankScreen	VGS	91	4	False	lime	600	[1350 1830  405  675]	[ 90 570 405 675]
673.462	1.0	1808136	1809136	ELCue	VGS	91	4	False	lime	600	[1350 1830  405  675]	[ 90 570 405 675]
674.873	2.0	1809547	1811587	ShowFixation	ANTI	92	4	False	red	180	[1035 1515  405  675]	[405 885 405 675]
676.913	0.2	1811587	1811823	BlankScreen	ANTI	92	4	False	red	180	[1035 1515  405  675]	[405 885 405 675]
677.149	1.0	1811823	1812823	ELCue	ANTI	92	4	False	red	180	[1035 1515  405  675]	[405 885 405 675]
678.558	6.0	1813232	1819257	ShowFixation	ANTI	93	4	False	red	180	[1035 1515  405  675]	[405 885 405 675]
684.583	0.2	1819257	1819497	BlankScreen	ANTI	93	4	False	red	180	[1035 1515  405  675]	[405 885 405 675]
684.823	1.0	1819497	1820497	ELCue	ANTI	93	4	False	red	180	[1035 1515  405  675]	[405 885 405 675]
686.231	2.0	1820905	1822932	ShowFixation	ANTI	94	4	False	red	40	[1350 1830  405  675]	[ 90 570 405 675]
688.258	0.2	1822932	1823167	BlankScreen	ANTI	94	4	False	red	40	[1350 1830  405  675]	[ 90 570 405 675]
688.493	1.0	1823167	1824167	ELCue	ANTI	94	4	False	red	40	[1350 1830  405  675]	[ 90 570 405 675]
689.904	2.0	1824578	1826602	ShowFixation	VGS	95	4	False	lime	600	[1350 1830  405  675]	[ 90 570 405 675]
691.928	0.2	1826602	1826837	BlankScreen	VGS	95	4	False	lime	600	[1350 1830  405  675]	[ 90 570 405 675]
692.163	1.0	1826837	1827837	ELCue	VGS	95	4	False	lime	600	[1350 1830  405  675]	[ 90 570 405 675]
693.568	2.0	1828242	1830272	ShowFixation	VGS	96	4	False	lime	180	[405 885 405 675]	[1035 1515  405  675]
695.598	0.2	1830272	1830508	BlankScreen	VGS	96	4	False	lime	180	[405 885 405 675]	[1035 1515  405  675]
695.834	1.0	1830508	1831508	ELCue	VGS	96	4	False	lime	180	[405 885 405 675]	[1035 1515  405  675]
697.244	6.0	1831918	1837943	ShowFixation	ANTI	97	4	False	red	600	[ 90 570 405 675]	[1350 1830  405  675]
703.269	0.2	1837943	1838182	BlankScreen	ANTI	97	4	False	red	600	[ 90 570 405 675]	[1350 1830  405  675]
703.508	1.0	1838182	1839182	ELCue	ANTI	97	4	False	red	600	[ 90 570 405 675]	[1350 1830  405  675]
704.912	6.0	1839586	1845617	ShowFixation	VGS	98	4	False	lime	600	[1350 1830  405  675]	[ 90 570 405 675]
710.944	0.2	1845618	1845856	BlankScreen	VGS	98	4	False	lime	600	[1350 1830  405  675]	[ 90 570 405 675]
711.182	1.0	1845856	1846856	ELCue	VGS	98	4	False	lime	600	[1350 1830  405  675]	[ 90 570 405 675]
712.592	2.0	1847266	1849291	ShowFixation	ANTI	99	4	False	red	40	[1350 1830  405  675]	[ 90 570 405 675]
714.617	0.2	1849291	1849526	BlankScreen	ANTI	99	4	False	red	40	[1350 1830  405  675]	[ 90 570 405 675]
714.853	1.0	1849527	1850527	ELCue	ANTI	99	4	False	red	40	[1350 1830  405  675]	[ 90 570 405 675]
716.228	6.0	1850902	1856929	ShowFixation	VGS	100	4	False	lime	460	[1035 1515  405  675]	[405 885 405 675]
722.255	0.2	1856929	1857168	BlankScreen	VGS	100	4	False	lime	460	[1035 1515  405  675]	[405 885 405 675]
722.494	1.0	1857168	1858168	ELCue	VGS	100	4	False	lime	460	[1035 1515  405  675]	[405 885 405 675]
723.905	2.0	1858579	1860620	ShowFixation	ANTI	101	4	False	red	600	[ 90 570 405 675]	[1350 1830  405  675]
725.946	0.2	1860620	1860855	BlankScreen	ANTI	101	4	False	red	600	[ 90 570 405 675]	[1350 1830  405  675]
726.181	1.0	1860855	1861855	ELCue	ANTI	101	4	False	red	600	[ 90 570 405 675]	[1350 1830  405  675]
727.592	2.0	1862266	1864307	ShowFixation	ANTI	102	4	False	red	180	[1035 1515  405  675]	[405 885 405 675]
729.633	0.2	1864307	1864542	BlankScreen	ANTI	102	4	False	red	180	[1035 1515  405  675]	[405 885 405 675]
729.868	1.0	1864542	1865542	ELCue	ANTI	102	4	False	red	180	[1035 1515  405  675]	[405 885 405 675]
731.279	2.0	1865953	1867994	ShowFixation	VGS	103	4	False	lime	40	[ 90 570 405 675]	[1350 1830  405  675]
733.32	0.2	1867994	1868229	BlankScreen	VGS	103	4	False	lime	40	[ 90 570 405 675]	[1350 1830  405  675]
733.555	1.0	1868229	1869229	ELCue	VGS	103	4	False	lime	40	[ 90 570 405 675]	[1350 1830  405  675]
734.958	6.0	1869632	1875664	ShowFixation	ANTI	104	4	False	red	180	[1035 1515  405  675]	[405 885 405 675]
740.99	0.2	1875664	1875903	BlankScreen	ANTI	104	4	False	red	180	[1035 1515  405  675]	[405 885 405 675]
741.229	1.0	1875903	1876903	ELCue	ANTI	104	4	False	red	180	[1035 1515  405  675]	[405 885 405 675]
742.638	2.0	1877312	1879338	ShowFixation	ANTI	105	4	False	red	460	[405 885 405 675]	[1035 1515  405  675]
744.664	0.2	1879338	1879574	BlankScreen	ANTI	105	4	False	red	460	[405 885 405 675]	[1035 1515  405  675]
744.9	1.0	1879574	1880574	ELCue	ANTI	105	4	False	red	460	[405 885 405 675]	[1035 1515  405  675]
746.309	6.0	1880983	1887009	ShowFixation	ANTI	106	4	False	red	40	[1350 1830  405  675]	[ 90 570 405 675]
752.335	0.2	1887009	1887248	BlankScreen	ANTI	106	4	False	red	40	[1350 1830  405  675]	[ 90 570 405 675]
752.574	1.0	1887248	1888248	ELCue	ANTI	106	4	False	red	40	[1350 1830  405  675]	[ 90 570 405 675]
753.964	6.0	1888638	1894666	ShowFixation	VGS	107	4	False	lime	180	[405 885 405 675]	[1035 1515  405  675]
759.992	0.2	1894666	1894905	BlankScreen	VGS	107	4	False	lime	180	[405 885 405 675]	[1035 1515  405  675]
760.231	1.0	1894905	1895905	ELCue	VGS	107	4	False	lime	180	[405 885 405 675]	[1035 1515  405  675]
761.638	6.0	1896312	1902340	ShowFixation	VGS	108	4	False	lime	40	[ 90 570 405 675]	[1350 1830  405  675]
767.666	0.2	1902340	1902580	BlankScreen	VGS	108	4	False	lime	40	[ 90 570 405 675]	[1350 1830  405  675]
767.906	1.0	1902580	1903580	ELCue	VGS	108	4	False	lime	40	[ 90 570 405 675]	[1350 1830  405  675]
769.311	2.0	1903985	1906015	ShowFixation	ANTI	109	4	False	red	600	[ 90 570 405 675]	[1350 1830  405  675]
771.341	0.2	1906015	1906250	BlankScreen	ANTI	109	4	False	red	600	[ 90 570 405 675]	[1350 1830  405  675]
771.576	1.0	1906250	1907250	ELCue	ANTI	109	4	False	red	600	[ 90 570 405 675]	[1350 1830  405  675]
772.985	2.0	1907659	1909685	ShowFixation	ANTI	110	4	False	red	460	[405 885 405 675]	[1035 1515  405  675]
775.011	0.2	1909685	1909920	BlankScreen	ANTI	110	4	False	red	460	[405 885 405 675]	[1035 1515  405  675]
775.246	1.0	1909920	1910920	ELCue	ANTI	110	4	False	red	460	[405 885 405 675]	[1035 1515  405  675]
776.656	2.0	1911330	1913355	ShowFixation	VGS	111	4	False	lime	460	[1035 1515  405  675]	[405 885 405 675]
778.681	0.2	1913355	1913591	BlankScreen	VGS	111	4	False	lime	460	[1035 1515  405  675]	[405 885 405 675]
778.917	1.0	1913591	1914591	ELCue	VGS	111	4	False	lime	460	[1035 1515  405  675]	[405 885 405 675]
780.325	6.0	1914999	1921025	ShowFixation	VGS	112	4	False	lime	180	[405 885 405 675]	[1035 1515  405  675]
786.351	0.2	1921025	1921265	BlankScreen	VGS	112	4	False	lime	180	[405 885 405 675]	[1035 1515  405  675]
786.591	1.0	1921265	1922265	ELCue	VGS	112	4	False	lime	180	[405 885 405 675]	[1035 1515  405  675]
