onset	duration	startTime	stopTime	eventIdentifier	trial_type	trial_number	block_number	is_practice	fixation_color	cue_side	aoi_correct	aoi_incorrect
0.144	6.0	2006071	2012112	ShowFixation	ANTI	1	1	True	red	180	[1035 1515  405  675]	[405 885 405 675]
6.185	0.2	2012112	2012351	BlankScreen	ANTI	1	1	True	red	180	[1035 1515  405  675]	[405 885 405 675]
6.424	1.0	2012351	2013392	ELCue	ANTI	1	1	True	red	180	[1035 1515  405  675]	[405 885 405 675]
7.868	6.0	2013795	2020437	ShowFixation	VGS	2	1	True	lime	460	[1035 1515  405  675]	[405 885 405 675]
14.51	0.2	2020437	2020676	BlankScreen	VGS	2	1	True	lime	460	[1035 1515  405  675]	[405 885 405 675]
14.749	1.0	2020676	2021717	ELCue	VGS	2	1	True	lime	460	[1035 1515  405  675]	[405 885 405 675]
16.197	2.0	2022124	2024762	ShowFixation	ANTI	3	1	True	red	600	[ 90 570 405 675]	[1350 1830  405  675]
18.835	0.2	2024762	2024997	BlankScreen	ANTI	3	1	True	red	600	[ 90 570 405 675]	[1350 1830  405  675]
19.07	1.0	2024997	2026038	ELCue	ANTI	3	1	True	red	600	[ 90 570 405 675]	[1350 1830  405  675]
20.511	2.0	2026438	2029083	ShowFixation	VGS	4	1	True	lime	600	[1350 1830  405  675]	[ 90 570 405 675]
23.156	0.2	2029083	2029318	BlankScreen	VGS	4	1	True	lime	600	[1350 1830  405  675]	[ 90 570 405 675]
23.391	1.0	2029318	2030359	ELCue	VGS	4	1	True	lime	600	[1350 1830  405  675]	[ 90 570 405 675]
24.819	6.0	2030746	2037404	ShowFixation	ANTI	5	1	True	red	40	[1350 1830  405  675]	[ 90 570 405 675]
31.477	0.2	2037404	2037643	BlankScreen	ANTI	5	1	True	red	40	[1350 1830  405  675]	[ 90 570 405 675]
31.716	1.0	2037643	2038684	ELCue	ANTI	5	1	True	red	40	[1350 1830  405  675]	[ 90 570 405 675]
33.142	6.0	2039069	2045729	ShowFixation	VGS	6	1	True	lime	40	[ 90 570 405 675]	[1350 1830  405  675]
39.802	0.2	2045729	2045968	BlankScreen	VGS	6	1	True	lime	40	[ 90 570 405 675]	[1350 1830  405  675]
40.041	1.0	2045968	2047009	ELCue	VGS	6	1	True	lime	40	[ 90 570 405 675]	[1350 1830  405  675]
41.489	6.0	2047416	2054054	ShowFixation	ANTI	7	1	True	red	600	[ 90 570 405 675]	[1350 1830  405  675]
48.127	0.2	2054054	2054293	BlankScreen	ANTI	7	1	True	red	600	[ 90 570 405 675]	[1350 1830  405  675]
48.366	1.0	2054293	2055334	ELCue	ANTI	7	1	True	red	600	[ 90 570 405 675]	[1350 1830  405  675]
49.808	2.0	2055735	2058378	ShowFixation	ANTI	8	1	True	red	180	[1035 1515  405  675]	[405 885 405 675]
52.452	0.2	2058379	2058614	BlankScreen	ANTI	8	1	True	red	180	[1035 1515  405  675]	[405 885 405 675]
52.687	1.0	2058614	2059655	ELCue	ANTI	8	1	True	red	180	[1035 1515  405  675]	[405 885 405 675]
54.136	2.0	2060063	2062699	ShowFixation	ANTI	9	1	True	red	460	[405 885 405 675]	[1035 1515  405  675]
56.772	0.2	2062699	2062935	BlankScreen	ANTI	9	1	True	red	460	[405 885 405 675]	[1035 1515  405  675]
57.008	1.0	2062935	2063975	ELCue	ANTI	9	1	True	red	460	[405 885 405 675]	[1035 1515  405  675]
58.455	2.0	2064382	2067004	ShowFixation	VGS	10	1	True	lime	460	[1035 1515  405  675]	[405 885 405 675]
61.078	0.2	2067005	2067223	BlankScreen	VGS	10	1	True	lime	460	[1035 1515  405  675]	[405 885 405 675]
61.296	1.0	2067223	2068246	ELCue	VGS	10	1	True	lime	460	[1035 1515  405  675]	[405 885 405 675]
62.726	6.0	2068653	2075292	ShowFixation	VGS	11	1	True	lime	600	[1350 1830  405  675]	[ 90 570 405 675]
69.365	0.2	2075292	2075531	BlankScreen	VGS	11	1	True	lime	600	[1350 1830  405  675]	[ 90 570 405 675]
69.604	1.0	2075531	2076571	ELCue	VGS	11	1	True	lime	600	[1350 1830  405  675]	[ 90 570 405 675]
71.05	6.0	2076977	2083600	ShowFixation	ANTI	12	1	True	red	460	[405 885 405 675]	[1035 1515  405  675]
77.673	0.2	2083600	2083840	BlankScreen	ANTI	12	1	True	red	460	[405 885 405 675]	[1035 1515  405  675]
77.913	1.0	2083840	2084880	ELCue	ANTI	12	1	True	red	460	[405 885 405 675]	[1035 1515  405  675]
79.36	2.0	2085287	2087925	ShowFixation	ANTI	13	1	True	red	40	[1350 1830  405  675]	[ 90 570 405 675]
81.998	0.2	2087925	2088161	BlankScreen	ANTI	13	1	True	red	40	[1350 1830  405  675]	[ 90 570 405 675]
82.234	1.0	2088161	2089201	ELCue	ANTI	13	1	True	red	40	[1350 1830  405  675]	[ 90 570 405 675]
83.678	6.0	2089605	2096246	ShowFixation	VGS	14	1	True	lime	180	[405 885 405 675]	[1035 1515  405  675]
90.319	0.2	2096246	2096485	BlankScreen	VGS	14	1	True	lime	180	[405 885 405 675]	[1035 1515  405  675]
90.558	1.0	2096485	2097526	ELCue	VGS	14	1	True	lime	180	[405 885 405 675]	[1035 1515  405  675]
92.004	2.0	2097931	2100571	ShowFixation	VGS	15	1	True	lime	40	[ 90 570 405 675]	[1350 1830  405  675]
94.644	0.2	2100571	2100806	BlankScreen	VGS	15	1	True	lime	40	[ 90 570 405 675]	[1350 1830  405  675]
94.879	1.0	2100806	2101847	ELCue	VGS	15	1	True	lime	40	[ 90 570 405 675]	[1350 1830  405  675]
96.305	2.0	2102232	2104892	ShowFixation	VGS	16	1	True	lime	180	[405 885 405 675]	[1035 1515  405  675]
98.965	0.2	2104892	2105127	BlankScreen	VGS	16	1	True	lime	180	[405 885 405 675]	[1035 1515  405  675]
99.2	1.0	2105127	2106168	ELCue	VGS	16	1	True	lime	180	[405 885 405 675]	[1035 1515  405  675]
118.476	2.0	2124403	2126430	ShowFixation	VGS	17	2	False	lime	600	[1350 1830  405  675]	[ 90 570 405 675]
120.503	0.2	2126430	2126665	BlankScreen	VGS	17	2	False	lime	600	[1350 1830  405  675]	[ 90 570 405 675]
120.738	1.0	2126665	2127665	ELCue	VGS	17	2	False	lime	600	[1350 1830  405  675]	[ 90 570 405 675]
122.247	2.0	2128174	2130200	ShowFixation	VGS	18	2	False	lime	460	[1035 1515  405  675]	[405 885 405 675]
124.273	0.2	2130200	2130436	BlankScreen	VGS	18	2	False	lime	460	[1035 1515  405  675]	[405 885 405 675]
124.509	1.0	2130436	2131436	ELCue	VGS	18	2	False	lime	460	[1035 1515  405  675]	[405 885 405 675]
125.911	2.0	2131838	2133871	ShowFixation	ANTI	19	2	False	red	460	[405 885 405 675]	[1035 1515  405  675]
127.944	0.2	2133871	2134106	BlankScreen	ANTI	19	2	False	red	460	[405 885 405 675]	[1035 1515  405  675]
128.179	1.0	2134106	2135106	ELCue	ANTI	19	2	False	red	460	[405 885 405 675]	[1035 1515  405  675]
129.589	2.0	2135516	2137541	ShowFixation	VGS	20	2	False	lime	600	[1350 1830  405  675]	[ 90 570 405 675]
131.614	0.2	2137541	2137776	BlankScreen	VGS	20	2	False	lime	600	[1350 1830  405  675]	[ 90 570 405 675]
131.849	1.0	2137776	2138776	ELCue	VGS	20	2	False	lime	600	[1350 1830  405  675]	[ 90 570 405 675]
133.255	6.0	2139182	2145211	ShowFixation	VGS	21	2	False	lime	460	[1035 1515  405  675]	[405 885 405 675]
139.284	0.2	2145211	2145450	BlankScreen	VGS	21	2	False	lime	460	[1035 1515  405  675]	[405 885 405 675]
139.523	1.0	2145450	2146450	ELCue	VGS	21	2	False	lime	460	[1035 1515  405  675]	[405 885 405 675]
140.93	6.0	2146857	2152885	ShowFixation	ANTI	22	2	False	red	460	[405 885 405 675]	[1035 1515  405  675]
146.958	0.2	2152885	2153125	BlankScreen	ANTI	22	2	False	red	460	[405 885 405 675]	[1035 1515  405  675]
147.198	1.0	2153125	2154125	ELCue	ANTI	22	2	False	red	460	[405 885 405 675]	[1035 1515  405  675]
148.606	2.0	2154533	2156560	ShowFixation	VGS	23	2	False	lime	40	[ 90 570 405 675]	[1350 1830  405  675]
150.633	0.2	2156560	2156795	BlankScreen	VGS	23	2	False	lime	40	[ 90 570 405 675]	[1350 1830  405  675]
150.868	1.0	2156795	2157795	ELCue	VGS	23	2	False	lime	40	[ 90 570 405 675]	[1350 1830  405  675]
152.276	6.0	2158203	2164230	ShowFixation	VGS	24	2	False	lime	460	[1035 1515  405  675]	[405 885 405 675]
158.303	0.2	2164230	2164469	BlankScreen	VGS	24	2	False	lime	460	[1035 1515  405  675]	[405 885 405 675]
158.542	1.0	2164469	2165469	ELCue	VGS	24	2	False	lime	460	[1035 1515  405  675]	[405 885 405 675]
159.952	2.0	2165879	2167904	ShowFixation	ANTI	25	2	False	red	40	[1350 1830  405  675]	[ 90 570 405 675]
161.977	0.2	2167904	2168140	BlankScreen	ANTI	25	2	False	red	40	[1350 1830  405  675]	[ 90 570 405 675]
162.213	1.0	2168140	2169140	ELCue	ANTI	25	2	False	red	40	[1350 1830  405  675]	[ 90 570 405 675]
163.62	2.0	2169547	2171575	ShowFixation	VGS	26	2	False	lime	460	[1035 1515  405  675]	[405 885 405 675]
165.648	0.2	2171575	2171810	BlankScreen	VGS	26	2	False	lime	460	[1035 1515  405  675]	[405 885 405 675]
165.883	1.0	2171810	2172810	ELCue	VGS	26	2	False	lime	460	[1035 1515  405  675]	[405 885 405 675]
167.29	6.0	2173217	2179245	ShowFixation	VGS	27	2	False	lime	40	[ 90 570 405 675]	[1350 1830  405  675]
173.318	0.2	2179245	2179484	BlankScreen	VGS	27	2	False	lime	40	[ 90 570 405 675]	[1350 1830  405  675]
173.557	1.0	2179484	2180484	ELCue	VGS	27	2	False	lime	40	[ 90 570 405 675]	[1350 1830  405  675]
174.965	2.0	2180892	2182919	ShowFixation	VGS	28	2	False	lime	180	[405 885 405 675]	[1035 1515  405  675]
176.992	0.2	2182919	2183154	BlankScreen	VGS	28	2	False	lime	180	[405 885 405 675]	[1035 1515  405  675]
177.227	1.0	2183154	2184154	ELCue	VGS	28	2	False	lime	180	[405 885 405 675]	[1035 1515  405  675]
178.637	6.0	2184564	2190589	ShowFixation	VGS	29	2	False	lime	180	[405 885 405 675]	[1035 1515  405  675]
184.663	0.2	2190590	2190829	BlankScreen	VGS	29	2	False	lime	180	[405 885 405 675]	[1035 1515  405  675]
184.903	1.0	2190830	2191830	ELCue	VGS	29	2	False	lime	180	[405 885 405 675]	[1035 1515  405  675]
186.311	2.0	2192238	2194264	ShowFixation	ANTI	30	2	False	red	40	[1350 1830  405  675]	[ 90 570 405 675]
188.337	0.2	2194264	2194499	BlankScreen	ANTI	30	2	False	red	40	[1350 1830  405  675]	[ 90 570 405 675]
188.573	1.0	2194500	2195500	ELCue	ANTI	30	2	False	red	40	[1350 1830  405  675]	[ 90 570 405 675]
189.983	6.0	2195910	2201935	ShowFixation	ANTI	31	2	False	red	600	[ 90 570 405 675]	[1350 1830  405  675]
196.008	0.2	2201935	2202174	BlankScreen	ANTI	31	2	False	red	600	[ 90 570 405 675]	[1350 1830  405  675]
196.247	1.0	2202174	2203174	ELCue	ANTI	31	2	False	red	600	[ 90 570 405 675]	[1350 1830  405  675]
197.657	6.0	2203584	2209609	ShowFixation	VGS	32	2	False	lime	600	[1350 1830  405  675]	[ 90 570 405 675]
203.682	0.2	2209609	2209848	BlankScreen	VGS	32	2	False	lime	600	[1350 1830  405  675]	[ 90 570 405 675]
203.921	1.0	2209848	2210848	ELCue	VGS	32	2	False	lime	600	[1350 1830  405  675]	[ 90 570 405 675]
205.327	6.0	2211254	2217283	ShowFixation	ANTI	33	2	False	red	180	[1035 1515  405  675]	[405 885 405 675]
211.356	0.2	2217283	2217523	BlankScreen	ANTI	33	2	False	red	180	[1035 1515  405  675]	[405 885 405 675]
211.596	1.0	2217523	2218523	ELCue	ANTI	33	2	False	red	180	[1035 1515  405  675]	[405 885 405 675]
213.004	6.0	2218931	2224958	ShowFixation	ANTI	34	2	False	red	600	[ 90 570 405 675]	[1350 1830  405  675]
219.031	0.2	2224958	2225197	BlankScreen	ANTI	34	2	False	red	600	[ 90 570 405 675]	[1350 1830  405  675]
219.27	1.0	2225197	2226197	ELCue	ANTI	34	2	False	red	600	[ 90 570 405 675]	[1350 1830  405  675]
220.677	6.0	2226604	2232632	ShowFixation	ANTI	35	2	False	red	40	[1350 1830  405  675]	[ 90 570 405 675]
226.705	0.2	2232632	2232871	BlankScreen	ANTI	35	2	False	red	40	[1350 1830  405  675]	[ 90 570 405 675]
226.944	1.0	2232871	2233871	ELCue	ANTI	35	2	False	red	40	[1350 1830  405  675]	[ 90 570 405 675]
228.354	2.0	2234281	2236306	ShowFixation	VGS	36	2	False	lime	180	[405 885 405 675]	[1035 1515  405  675]
230.379	0.2	2236306	2236541	BlankScreen	VGS	36	2	False	lime	180	[405 885 405 675]	[1035 1515  405  675]
230.614	1.0	2236541	2237541	ELCue	VGS	36	2	False	lime	180	[405 885 405 675]	[1035 1515  405  675]
232.018	2.0	2237945	2239976	ShowFixation	ANTI	37	2	False	red	600	[ 90 570 405 675]	[1350 1830  405  675]
234.049	0.2	2239976	2240212	BlankScreen	ANTI	37	2	False	red	600	[ 90 570 405 675]	[1350 1830  405  675]
234.285	1.0	2240212	2241212	ELCue	ANTI	37	2	False	red	600	[ 90 570 405 675]	[1350 1830  405  675]
235.688	2.0	2241615	2243647	ShowFixation	ANTI	38	2	False	red	460	[405 885 405 675]	[1035 1515  405  675]
237.72	0.2	2243647	2243882	BlankScreen	ANTI	38	2	False	red	460	[405 885 405 675]	[1035 1515  405  675]
237.955	1.0	2243882	2244882	ELCue	ANTI	38	2	False	red	460	[405 885 405 675]	[1035 1515  405  675]
239.356	6.0	2245283	2251317	ShowFixation	VGS	39	2	False	lime	40	[ 90 570 405 675]	[1350 1830  405  675]
245.39	0.2	2251317	2251556	BlankScreen	VGS	39	2	False	lime	40	[ 90 570 405 675]	[1350 1830  405  675]
245.629	1.0	2251556	2252556	ELCue	VGS	39	2	False	lime	40	[ 90 570 405 675]	[1350 1830  405  675]
247.04	6.0	2252967	2259008	ShowFixation	ANTI	40	2	False	red	460	[405 885 405 675]	[1035 1515  405  675]
253.081	0.2	2259008	2259247	BlankScreen	ANTI	40	2	False	red	460	[405 885 405 675]	[1035 1515  405  675]
253.32	1.0	2259247	2260247	ELCue	ANTI	40	2	False	red	460	[405 885 405 675]	[1035 1515  405  675]
254.728	6.0	2260655	2266682	ShowFixation	VGS	41	2	False	lime	180	[405 885 405 675]	[1035 1515  405  675]
260.755	0.2	2266682	2266921	BlankScreen	VGS	41	2	False	lime	180	[405 885 405 675]	[1035 1515  405  675]
260.994	1.0	2266921	2267921	ELCue	VGS	41	2	False	lime	180	[405 885 405 675]	[1035 1515  405  675]
262.402	6.0	2268329	2274356	ShowFixation	VGS	42	2	False	lime	600	[1350 1830  405  675]	[ 90 570 405 675]
268.429	0.2	2274356	2274596	BlankScreen	VGS	42	2	False	lime	600	[1350 1830  405  675]	[ 90 570 405 675]
268.669	1.0	2274596	2275596	ELCue	VGS	42	2	False	lime	600	[1350 1830  405  675]	[ 90 570 405 675]
270.079	6.0	2276006	2282047	ShowFixation	ANTI	43	2	False	red	180	[1035 1515  405  675]	[405 885 405 675]
276.12	0.2	2282047	2282287	BlankScreen	ANTI	43	2	False	red	180	[1035 1515  405  675]	[405 885 405 675]
276.36	1.0	2282287	2283287	ELCue	ANTI	43	2	False	red	180	[1035 1515  405  675]	[405 885 405 675]
277.767	2.0	2283694	2285722	ShowFixation	VGS	44	2	False	lime	40	[ 90 570 405 675]	[1350 1830  405  675]
279.795	0.2	2285722	2285957	BlankScreen	VGS	44	2	False	lime	40	[ 90 570 405 675]	[1350 1830  405  675]
280.03	1.0	2285957	2286957	ELCue	VGS	44	2	False	lime	40	[ 90 570 405 675]	[1350 1830  405  675]
281.44	6.0	2287367	2293392	ShowFixation	ANTI	45	2	False	red	40	[1350 1830  405  675]	[ 90 570 405 675]
287.465	0.2	2293392	2293631	BlankScreen	ANTI	45	2	False	red	40	[1350 1830  405  675]	[ 90 570 405 675]
287.704	1.0	2293631	2294631	ELCue	ANTI	45	2	False	red	40	[1350 1830  405  675]	[ 90 570 405 675]
289.113	2.0	2295040	2297066	ShowFixation	ANTI	46	2	False	red	180	[1035 1515  405  675]	[405 885 405 675]
291.139	0.2	2297066	2297301	BlankScreen	ANTI	46	2	False	red	180	[1035 1515  405  675]	[405 885 405 675]
291.374	1.0	2297301	2298301	ELCue	ANTI	46	2	False	red	180	[1035 1515  405  675]	[405 885 405 675]
292.785	2.0	2298712	2300753	ShowFixation	ANTI	47	2	False	red	180	[1035 1515  405  675]	[405 885 405 675]
294.826	0.2	2300753	2300988	BlankScreen	ANTI	47	2	False	red	180	[1035 1515  405  675]	[405 885 405 675]
295.061	1.0	2300988	2301988	ELCue	ANTI	47	2	False	red	180	[1035 1515  405  675]	[405 885 405 675]
296.47	2.0	2302397	2304423	ShowFixation	ANTI	48	2	False	red	600	[ 90 570 405 675]	[1350 1830  405  675]
298.496	0.2	2304423	2304659	BlankScreen	ANTI	48	2	False	red	600	[ 90 570 405 675]	[1350 1830  405  675]
298.732	1.0	2304659	2305659	ELCue	ANTI	48	2	False	red	600	[ 90 570 405 675]	[1350 1830  405  675]
325.836	2.0	2331763	2333803	ShowFixation	ANTI	49	3	False	red	600	[ 90 570 405 675]	[1350 1830  405  675]
327.876	0.2	2333803	2334039	BlankScreen	ANTI	49	3	False	red	600	[ 90 570 405 675]	[1350 1830  405  675]
328.112	1.0	2334039	2335039	ELCue	ANTI	49	3	False	red	600	[ 90 570 405 675]	[1350 1830  405  675]
329.519	2.0	2335446	2337474	ShowFixation	VGS	50	3	False	lime	40	[ 90 570 405 675]	[1350 1830  405  675]
331.547	0.2	2337474	2337709	BlankScreen	VGS	50	3	False	lime	40	[ 90 570 405 675]	[1350 1830  405  675]
331.782	1.0	2337709	2338709	ELCue	VGS	50	3	False	lime	40	[ 90 570 405 675]	[1350 1830  405  675]
333.192	6.0	2339119	2345144	ShowFixation	ANTI	51	3	False	red	180	[1035 1515  405  675]	[405 885 405 675]
339.217	0.2	2345144	2345383	BlankScreen	ANTI	51	3	False	red	180	[1035 1515  405  675]	[405 885 405 675]
339.456	1.0	2345383	2346383	ELCue	ANTI	51	3	False	red	180	[1035 1515  405  675]	[405 885 405 675]
340.866	2.0	2346793	2348818	ShowFixation	VGS	52	3	False	lime	460	[1035 1515  405  675]	[405 885 405 675]
342.891	0.2	2348818	2349054	BlankScreen	VGS	52	3	False	lime	460	[1035 1515  405  675]	[405 885 405 675]
343.127	1.0	2349054	2350054	ELCue	VGS	52	3	False	lime	460	[1035 1515  405  675]	[405 885 405 675]
344.537	6.0	2350464	2356505	ShowFixation	VGS	53	3	False	lime	460	[1035 1515  405  675]	[405 885 405 675]
350.578	0.2	2356505	2356745	BlankScreen	VGS	53	3	False	lime	460	[1035 1515  405  675]	[405 885 405 675]
350.818	1.0	2356745	2357745	ELCue	VGS	53	3	False	lime	460	[1035 1515  405  675]	[405 885 405 675]
352.225	6.0	2358152	2364179	ShowFixation	VGS	54	3	False	lime	40	[ 90 570 405 675]	[1350 1830  405  675]
358.252	0.2	2364179	2364419	BlankScreen	VGS	54	3	False	lime	40	[ 90 570 405 675]	[1350 1830  405  675]
358.492	1.0	2364419	2365419	ELCue	VGS	54	3	False	lime	40	[ 90 570 405 675]	[1350 1830  405  675]
359.898	2.0	2365825	2367854	ShowFixation	ANTI	55	3	False	red	40	[1350 1830  405  675]	[ 90 570 405 675]
361.927	0.2	2367854	2368089	BlankScreen	ANTI	55	3	False	red	40	[1350 1830  405  675]	[ 90 570 405 675]
362.162	1.0	2368089	2369089	ELCue	ANTI	55	3	False	red	40	[1350 1830  405  675]	[ 90 570 405 675]
363.569	2.0	2369496	2371524	ShowFixation	ANTI	56	3	False	red	40	[1350 1830  405  675]	[ 90 570 405 675]
365.597	0.2	2371524	2371759	BlankScreen	ANTI	56	3	False	red	40	[1350 1830  405  675]	[ 90 570 405 675]
365.832	1.0	2371759	2372759	ELCue	ANTI	56	3	False	red	40	[1350 1830  405  675]	[ 90 570 405 675]
367.237	6.0	2373164	2379194	ShowFixation	ANTI	57	3	False	red	40	[1350 1830  405  675]	[ 90 570 405 675]
373.267	0.2	2379194	2379434	BlankScreen	ANTI	57	3	False	red	40	[1350 1830  405  675]	[ 90 570 405 675]
373.507	1.0	2379434	2380434	ELCue	ANTI	57	3	False	red	40	[1350 1830  405  675]	[ 90 570 405 675]
374.92	6.0	2380847	2386885	ShowFixation	VGS	58	3	False	lime	600	[1350 1830  405  675]	[ 90 570 405 675]
380.958	0.2	2386885	2387125	BlankScreen	VGS	58	3	False	lime	600	[1350 1830  405  675]	[ 90 570 405 675]
381.198	1.0	2387125	2388125	ELCue	VGS	58	3	False	lime	600	[1350 1830  405  675]	[ 90 570 405 675]
382.599	6.0	2388526	2394559	ShowFixation	ANTI	59	3	False	red	180	[1035 1515  405  675]	[405 885 405 675]
388.632	0.2	2394559	2394799	BlankScreen	ANTI	59	3	False	red	180	[1035 1515  405  675]	[405 885 405 675]
388.872	1.0	2394799	2395799	ELCue	ANTI	59	3	False	red	180	[1035 1515  405  675]	[405 885 405 675]
390.28	6.0	2396207	2402234	ShowFixation	ANTI	60	3	False	red	460	[405 885 405 675]	[1035 1515  405  675]
396.307	0.2	2402234	2402473	BlankScreen	ANTI	60	3	False	red	460	[405 885 405 675]	[1035 1515  405  675]
396.546	1.0	2402473	2403473	ELCue	ANTI	60	3	False	red	460	[405 885 405 675]	[1035 1515  405  675]
397.951	2.0	2403878	2405908	ShowFixation	VGS	61	3	False	lime	600	[1350 1830  405  675]	[ 90 570 405 675]
399.981	0.2	2405908	2406143	BlankScreen	VGS	61	3	False	lime	600	[1350 1830  405  675]	[ 90 570 405 675]
400.216	1.0	2406143	2407143	ELCue	VGS	61	3	False	lime	600	[1350 1830  405  675]	[ 90 570 405 675]
401.623	2.0	2407550	2409578	ShowFixation	VGS	62	3	False	lime	180	[405 885 405 675]	[1035 1515  405  675]
403.651	0.2	2409578	2409814	BlankScreen	VGS	62	3	False	lime	180	[405 885 405 675]	[1035 1515  405  675]
403.887	1.0	2409814	2410814	ELCue	VGS	62	3	False	lime	180	[405 885 405 675]	[1035 1515  405  675]
405.293	2.0	2411220	2413249	ShowFixation	VGS	63	3	False	lime	40	[ 90 570 405 675]	[1350 1830  405  675]
407.322	0.2	2413249	2413484	BlankScreen	VGS	63	3	False	lime	40	[ 90 570 405 675]	[1350 1830  405  675]
407.557	1.0	2413484	2414484	ELCue	VGS	63	3	False	lime	40	[ 90 570 405 675]	[1350 1830  405  675]
408.967	6.0	2414894	2420919	ShowFixation	VGS	64	3	False	lime	180	[405 885 405 675]	[1035 1515  405  675]
414.992	0.2	2420919	2421158	BlankScreen	VGS	64	3	False	lime	180	[405 885 405 675]	[1035 1515  405  675]
415.231	1.0	2421158	2422158	ELCue	VGS	64	3	False	lime	180	[405 885 405 675]	[1035 1515  405  675]
416.641	6.0	2422568	2428593	ShowFixation	VGS	65	3	False	lime	460	[1035 1515  405  675]	[405 885 405 675]
422.666	0.2	2428593	2428832	BlankScreen	VGS	65	3	False	lime	460	[1035 1515  405  675]	[405 885 405 675]
422.905	1.0	2428832	2429832	ELCue	VGS	65	3	False	lime	460	[1035 1515  405  675]	[405 885 405 675]
424.316	6.0	2430243	2436284	ShowFixation	ANTI	66	3	False	red	40	[1350 1830  405  675]	[ 90 570 405 675]
430.357	0.2	2436284	2436523	BlankScreen	ANTI	66	3	False	red	40	[1350 1830  405  675]	[ 90 570 405 675]
430.596	1.0	2436523	2437523	ELCue	ANTI	66	3	False	red	40	[1350 1830  405  675]	[ 90 570 405 675]
432.006	6.0	2437933	2443958	ShowFixation	VGS	67	3	False	lime	40	[ 90 570 405 675]	[1350 1830  405  675]
438.031	0.2	2443958	2444198	BlankScreen	VGS	67	3	False	lime	40	[ 90 570 405 675]	[1350 1830  405  675]
438.271	1.0	2444198	2445198	ELCue	VGS	67	3	False	lime	40	[ 90 570 405 675]	[1350 1830  405  675]
439.683	6.0	2445610	2451649	ShowFixation	ANTI	68	3	False	red	460	[405 885 405 675]	[1035 1515  405  675]
445.723	0.2	2451650	2451889	BlankScreen	ANTI	68	3	False	red	460	[405 885 405 675]	[1035 1515  405  675]
445.962	1.0	2451889	2452889	ELCue	ANTI	68	3	False	red	460	[405 885 405 675]	[1035 1515  405  675]
447.373	2.0	2453300	2455340	ShowFixation	ANTI	69	3	False	red	460	[405 885 405 675]	[1035 1515  405  675]
449.414	0.2	2455341	2455576	BlankScreen	ANTI	69	3	False	red	460	[405 885 405 675]	[1035 1515  405  675]
449.649	1.0	2455576	2456576	ELCue	ANTI	69	3	False	red	460	[405 885 405 675]	[1035 1515  405  675]
451.06	2.0	2456987	2459028	ShowFixation	VGS	70	3	False	lime	180	[405 885 405 675]	[1035 1515  405  675]
453.101	0.2	2459028	2459263	BlankScreen	VGS	70	3	False	lime	180	[405 885 405 675]	[1035 1515  405  675]
453.336	1.0	2459263	2460263	ELCue	VGS	70	3	False	lime	180	[405 885 405 675]	[1035 1515  405  675]
454.727	6.0	2460654	2466682	ShowFixation	VGS	71	3	False	lime	180	[405 885 405 675]	[1035 1515  405  675]
460.755	0.2	2466682	2466921	BlankScreen	VGS	71	3	False	lime	180	[405 885 405 675]	[1035 1515  405  675]
460.994	1.0	2466921	2467921	ELCue	VGS	71	3	False	lime	180	[405 885 405 675]	[1035 1515  405  675]
462.402	2.0	2468329	2470356	ShowFixation	ANTI	72	3	False	red	180	[1035 1515  405  675]	[405 885 405 675]
464.429	0.2	2470356	2470591	BlankScreen	ANTI	72	3	False	red	180	[1035 1515  405  675]	[405 885 405 675]
464.664	1.0	2470591	2471591	ELCue	ANTI	72	3	False	red	180	[1035 1515  405  675]	[405 885 405 675]
466.071	2.0	2471998	2474026	ShowFixation	VGS	73	3	False	lime	460	[1035 1515  405  675]	[405 885 405 675]
468.099	0.2	2474026	2474262	BlankScreen	VGS	73	3	False	lime	460	[1035 1515  405  675]	[405 885 405 675]
468.335	1.0	2474262	2475262	ELCue	VGS	73	3	False	lime	460	[1035 1515  405  675]	[405 885 405 675]
469.744	2.0	2475671	2477697	ShowFixation	VGS	74	3	False	lime	600	[1350 1830  405  675]	[ 90 570 405 675]
471.77	0.2	2477697	2477932	BlankScreen	VGS	74	3	False	lime	600	[1350 1830  405  675]	[ 90 570 405 675]
472.005	1.0	2477932	2478932	ELCue	VGS	74	3	False	lime	600	[1350 1830  405  675]	[ 90 570 405 675]
473.411	2.0	2479338	2481367	ShowFixation	ANTI	75	3	False	red	460	[405 885 405 675]	[1035 1515  405  675]
475.44	0.2	2481367	2481602	BlankScreen	ANTI	75	3	False	red	460	[405 885 405 675]	[1035 1515  405  675]
475.675	1.0	2481602	2482602	ELCue	ANTI	75	3	False	red	460	[405 885 405 675]	[1035 1515  405  675]
477.079	6.0	2483006	2489037	ShowFixation	ANTI	76	3	False	red	600	[ 90 570 405 675]	[1350 1830  405  675]
483.11	0.2	2489037	2489276	BlankScreen	ANTI	76	3	False	red	600	[ 90 570 405 675]	[1350 1830  405  675]
483.349	1.0	2489276	2490276	ELCue	ANTI	76	3	False	red	600	[ 90 570 405 675]	[1350 1830  405  675]
484.75	2.0	2490677	2492711	ShowFixation	ANTI	77	3	False	red	180	[1035 1515  405  675]	[405 885 405 675]
486.784	0.2	2492711	2492947	BlankScreen	ANTI	77	3	False	red	180	[1035 1515  405  675]	[405 885 405 675]
487.02	1.0	2492947	2493947	ELCue	ANTI	77	3	False	red	180	[1035 1515  405  675]	[405 885 405 675]
488.429	6.0	2494356	2500382	ShowFixation	VGS	78	3	False	lime	600	[1350 1830  405  675]	[ 90 570 405 675]
494.455	0.2	2500382	2500621	BlankScreen	VGS	78	3	False	lime	600	[1350 1830  405  675]	[ 90 570 405 675]
494.694	1.0	2500621	2501621	ELCue	VGS	78	3	False	lime	600	[1350 1830  405  675]	[ 90 570 405 675]
496.105	6.0	2502032	2508073	ShowFixation	ANTI	79	3	False	red	600	[ 90 570 405 675]	[1350 1830  405  675]
502.146	0.2	2508073	2508312	BlankScreen	ANTI	79	3	False	red	600	[ 90 570 405 675]	[1350 1830  405  675]
502.385	1.0	2508312	2509312	ELCue	ANTI	79	3	False	red	600	[ 90 570 405 675]	[1350 1830  405  675]
503.795	2.0	2509722	2511747	ShowFixation	ANTI	80	3	False	red	600	[ 90 570 405 675]	[1350 1830  405  675]
505.82	0.2	2511747	2511982	BlankScreen	ANTI	80	3	False	red	600	[ 90 570 405 675]	[1350 1830  405  675]
506.055	1.0	2511982	2512982	ELCue	ANTI	80	3	False	red	600	[ 90 570 405 675]	[1350 1830  405  675]
517.738	6.0	2523665	2529694	ShowFixation	ANTI	81	4	False	red	600	[ 90 570 405 675]	[1350 1830  405  675]
523.767	0.2	2529694	2529933	BlankScreen	ANTI	81	4	False	red	600	[ 90 570 405 675]	[1350 1830  405  675]
524.006	1.0	2529933	2530933	ELCue	ANTI	81	4	False	red	600	[ 90 570 405 675]	[1350 1830  405  675]
525.412	2.0	2531339	2533369	ShowFixation	VGS	82	4	False	lime	460	[1035 1515  405  675]	[405 885 405 675]
527.442	0.2	2533369	2533604	BlankScreen	VGS	82	4	False	lime	460	[1035 1515  405  675]	[405 885 405 675]
527.677	1.0	2533604	2534604	ELCue	VGS	82	4	False	lime	460	[1035 1515  405  675]	[405 885 405 675]
529.085	2.0	2535012	2537038	ShowFixation	VGS	83	4	False	lime	180	[405 885 405 675]	[1035 1515  405  675]
531.111	0.2	2537038	2537274	BlankScreen	VGS	83	4	False	lime	180	[405 885 405 675]	[1035 1515  405  675]
531.347	1.0	2537274	2538274	ELCue	VGS	83	4	False	lime	180	[405 885 405 675]	[1035 1515  405  675]
532.758	6.0	2538685	2544725	ShowFixation	VGS	84	4	False	lime	180	[405 885 405 675]	[1035 1515  405  675]
538.798	0.2	2544725	2544965	BlankScreen	VGS	84	4	False	lime	180	[405 885 405 675]	[1035 1515  405  675]
539.038	1.0	2544965	2545965	ELCue	VGS	84	4	False	lime	180	[405 885 405 675]	[1035 1515  405  675]
540.447	6.0	2546374	2552400	ShowFixation	ANTI	85	4	False	red	40	[1350 1830  405  675]	[ 90 570 405 675]
546.473	0.2	2552400	2552639	BlankScreen	ANTI	85	4	False	red	40	[1350 1830  405  675]	[ 90 570 405 675]
546.712	1.0	2552639	2553639	ELCue	ANTI	85	4	False	red	40	[1350 1830  405  675]	[ 90 570 405 675]
548.119	6.0	2554046	2560074	ShowFixation	ANTI	86	4	False	red	180	[1035 1515  405  675]	[405 885 405 675]
554.147	0.2	2560074	2560313	BlankScreen	ANTI	86	4	False	red	180	[1035 1515  405  675]	[405 885 405 675]
554.386	1.0	2560313	2561313	ELCue	ANTI	86	4	False	red	180	[1035 1515  405  675]	[405 885 405 675]
555.775	2.0	2561702	2563732	ShowFixation	ANTI	87	4	False	red	180	[1035 1515  405  675]	[405 885 405 675]
557.805	0.2	2563732	2563967	BlankScreen	ANTI	87	4	False	red	180	[1035 1515  405  675]	[405 885 405 675]
558.04	1.0	2563967	2564967	ELCue	ANTI	87	4	False	red	180	[1035 1515  405  675]	[405 885 405 675]
559.452	6.0	2565379	2571418	ShowFixation	VGS	88	4	False	lime	40	[ 90 570 405 675]	[1350 1830  405  675]
565.492	0.2	2571419	2571658	BlankScreen	VGS	88	4	False	lime	40	[ 90 570 405 675]	[1350 1830  405  675]
565.732	1.0	2571659	2572659	ELCue	VGS	88	4	False	lime	40	[ 90 570 405 675]	[1350 1830  405  675]
567.144	6.0	2573071	2579109	ShowFixation	VGS	89	4	False	lime	460	[1035 1515  405  675]	[405 885 405 675]
573.183	0.2	2579110	2579349	BlankScreen	VGS	89	4	False	lime	460	[1035 1515  405  675]	[405 885 405 675]
573.423	1.0	2579350	2580350	ELCue	VGS	89	4	False	lime	460	[1035 1515  405  675]	[405 885 405 675]
574.832	6.0	2580759	2586785	ShowFixation	VGS	90	4	False	lime	600	[1350 1830  405  675]	[ 90 570 405 675]
580.858	0.2	2586785	2587024	BlankScreen	VGS	90	4	False	lime	600	[1350 1830  405  675]	[ 90 570 405 675]
581.097	1.0	2587024	2588024	ELCue	VGS	90	4	False	lime	600	[1350 1830  405  675]	[ 90 570 405 675]
582.501	2.0	2588428	2590459	ShowFixation	ANTI	91	4	False	red	40	[1350 1830  405  675]	[ 90 570 405 675]
584.532	0.2	2590459	2590694	BlankScreen	ANTI	91	4	False	red	40	[1350 1830  405  675]	[ 90 570 405 675]
584.767	1.0	2590694	2591694	ELCue	ANTI	91	4	False	red	40	[1350 1830  405  675]	[ 90 570 405 675]
586.144	2.0	2592071	2594096	ShowFixation	VGS	92	4	False	lime	600	[1350 1830  405  675]	[ 90 570 405 675]
588.169	0.2	2594096	2594331	BlankScreen	VGS	92	4	False	lime	600	[1350 1830  405  675]	[ 90 570 405 675]
588.404	1.0	2594331	2595331	ELCue	VGS	92	4	False	lime	600	[1350 1830  405  675]	[ 90 570 405 675]
589.807	6.0	2595734	2601766	ShowFixation	ANTI	93	4	False	red	600	[ 90 570 405 675]	[1350 1830  405  675]
595.839	0.2	2601766	2602005	BlankScreen	ANTI	93	4	False	red	600	[ 90 570 405 675]	[1350 1830  405  675]
596.078	1.0	2602005	2603005	ELCue	ANTI	93	4	False	red	600	[ 90 570 405 675]	[1350 1830  405  675]
597.485	2.0	2603412	2605440	ShowFixation	VGS	94	4	False	lime	460	[1035 1515  405  675]	[405 885 405 675]
599.513	0.2	2605440	2605676	BlankScreen	VGS	94	4	False	lime	460	[1035 1515  405  675]	[405 885 405 675]
599.749	1.0	2605676	2606676	ELCue	VGS	94	4	False	lime	460	[1035 1515  405  675]	[405 885 405 675]
601.155	2.0	2607082	2609111	ShowFixation	ANTI	95	4	False	red	600	[ 90 570 405 675]	[1350 1830  405  675]
603.184	0.2	2609111	2609346	BlankScreen	ANTI	95	4	False	red	600	[ 90 570 405 675]	[1350 1830  405  675]
603.419	1.0	2609346	2610346	ELCue	ANTI	95	4	False	red	600	[ 90 570 405 675]	[1350 1830  405  675]
604.824	2.0	2610751	2612781	ShowFixation	ANTI	96	4	False	red	40	[1350 1830  405  675]	[ 90 570 405 675]
606.854	0.2	2612781	2613016	BlankScreen	ANTI	96	4	False	red	40	[1350 1830  405  675]	[ 90 570 405 675]
607.089	1.0	2613016	2614016	ELCue	ANTI	96	4	False	red	40	[1350 1830  405  675]	[ 90 570 405 675]
608.498	2.0	2614425	2616451	ShowFixation	VGS	97	4	False	lime	40	[ 90 570 405 675]	[1350 1830  405  675]
610.524	0.2	2616451	2616687	BlankScreen	VGS	97	4	False	lime	40	[ 90 570 405 675]	[1350 1830  405  675]
610.76	1.0	2616687	2617687	ELCue	VGS	97	4	False	lime	40	[ 90 570 405 675]	[1350 1830  405  675]
612.168	6.0	2618095	2624122	ShowFixation	ANTI	98	4	False	red	460	[405 885 405 675]	[1035 1515  405  675]
618.195	0.2	2624122	2624361	BlankScreen	ANTI	98	4	False	red	460	[405 885 405 675]	[1035 1515  405  675]
618.434	1.0	2624361	2625361	ELCue	ANTI	98	4	False	red	460	[405 885 405 675]	[1035 1515  405  675]
619.846	2.0	2625773	2627812	ShowFixation	VGS	99	4	False	lime	600	[1350 1830  405  675]	[ 90 570 405 675]
621.885	0.2	2627812	2628048	BlankScreen	VGS	99	4	False	lime	600	[1350 1830  405  675]	[ 90 570 405 675]
622.121	1.0	2628048	2629048	ELCue	VGS	99	4	False	lime	600	[1350 1830  405  675]	[ 90 570 405 675]
623.529	6.0	2629456	2635483	ShowFixation	VGS	100	4	False	lime	460	[1035 1515  405  675]	[405 885 405 675]
629.556	0.2	2635483	2635722	BlankScreen	VGS	100	4	False	lime	460	[1035 1515  405  675]	[405 885 405 675]
629.795	1.0	2635722	2636722	ELCue	VGS	100	4	False	lime	460	[1035 1515  405  675]	[405 885 405 675]
631.196	2.0	2637123	2639157	ShowFixation	ANTI	101	4	False	red	600	[ 90 570 405 675]	[1350 1830  405  675]
633.23	0.2	2639157	2639392	BlankScreen	ANTI	101	4	False	red	600	[ 90 570 405 675]	[1350 1830  405  675]
633.465	1.0	2639392	2640392	ELCue	ANTI	101	4	False	red	600	[ 90 570 405 675]	[1350 1830  405  675]
634.867	6.0	2640794	2646827	ShowFixation	VGS	102	4	False	lime	40	[ 90 570 405 675]	[1350 1830  405  675]
640.9	0.2	2646827	2647067	BlankScreen	VGS	102	4	False	lime	40	[ 90 570 405 675]	[1350 1830  405  675]
641.14	1.0	2647067	2648067	ELCue	VGS	102	4	False	lime	40	[ 90 570 405 675]	[1350 1830  405  675]
642.549	2.0	2648476	2650502	ShowFixation	VGS	103	4	False	lime	40	[ 90 570 405 675]	[1350 1830  405  675]
644.575	0.2	2650502	2650737	BlankScreen	VGS	103	4	False	lime	40	[ 90 570 405 675]	[1350 1830  405  675]
644.81	1.0	2650737	2651737	ELCue	VGS	103	4	False	lime	40	[ 90 570 405 675]	[1350 1830  405  675]
646.184	2.0	2652111	2654138	ShowFixation	ANTI	104	4	False	red	180	[1035 1515  405  675]	[405 885 405 675]
648.211	0.2	2654138	2654374	BlankScreen	ANTI	104	4	False	red	180	[1035 1515  405  675]	[405 885 405 675]
648.447	1.0	2654374	2655374	ELCue	ANTI	104	4	False	red	180	[1035 1515  405  675]	[405 885 405 675]
649.854	6.0	2655781	2661809	ShowFixation	ANTI	105	4	False	red	180	[1035 1515  405  675]	[405 885 405 675]
655.882	0.2	2661809	2662048	BlankScreen	ANTI	105	4	False	red	180	[1035 1515  405  675]	[405 885 405 675]
656.121	1.0	2662048	2663048	ELCue	ANTI	105	4	False	red	180	[1035 1515  405  675]	[405 885 405 675]
657.532	2.0	2663459	2665500	ShowFixation	VGS	106	4	False	lime	180	[405 885 405 675]	[1035 1515  405  675]
659.573	0.2	2665500	2665735	BlankScreen	VGS	106	4	False	lime	180	[405 885 405 675]	[1035 1515  405  675]
659.808	1.0	2665735	2666735	ELCue	VGS	106	4	False	lime	180	[405 885 405 675]	[1035 1515  405  675]
661.213	2.0	2667140	2669170	ShowFixation	ANTI	107	4	False	red	460	[405 885 405 675]	[1035 1515  405  675]
663.243	0.2	2669170	2669405	BlankScreen	ANTI	107	4	False	red	460	[405 885 405 675]	[1035 1515  405  675]
663.478	1.0	2669405	2670405	ELCue	ANTI	107	4	False	red	460	[405 885 405 675]	[1035 1515  405  675]
664.888	2.0	2670815	2672840	ShowFixation	ANTI	108	4	False	red	460	[405 885 405 675]	[1035 1515  405  675]
666.913	0.2	2672840	2673076	BlankScreen	ANTI	108	4	False	red	460	[405 885 405 675]	[1035 1515  405  675]
667.149	1.0	2673076	2674076	ELCue	ANTI	108	4	False	red	460	[405 885 405 675]	[1035 1515  405  675]
668.556	6.0	2674483	2680511	ShowFixation	ANTI	109	4	False	red	460	[405 885 405 675]	[1035 1515  405  675]
674.584	0.2	2680511	2680750	BlankScreen	ANTI	109	4	False	red	460	[405 885 405 675]	[1035 1515  405  675]
674.823	1.0	2680750	2681750	ELCue	ANTI	109	4	False	red	460	[405 885 405 675]	[1035 1515  405  675]
676.229	6.0	2682156	2688185	ShowFixation	VGS	110	4	False	lime	600	[1350 1830  405  675]	[ 90 570 405 675]
682.258	0.2	2688185	2688424	BlankScreen	VGS	110	4	False	lime	600	[1350 1830  405  675]	[ 90 570 405 675]
682.497	1.0	2688424	2689424	ELCue	VGS	110	4	False	lime	600	[1350 1830  405  675]	[ 90 570 405 675]
683.904	6.0	2689831	2695859	ShowFixation	VGS	111	4	False	lime	180	[405 885 405 675]	[1035 1515  405  675]
689.932	0.2	2695859	2696098	BlankScreen	VGS	111	4	False	lime	180	[405 885 405 675]	[1035 1515  405  675]
690.171	1.0	2696098	2697098	ELCue	VGS	111	4	False	lime	180	[405 885 405 675]	[1035 1515  405  675]
691.577	6.0	2697504	2703533	ShowFixation	ANTI	112	4	False	red	40	[1350 1830  405  675]	[ 90 570 405 675]
697.606	0.2	2703533	2703773	BlankScreen	ANTI	112	4	False	red	40	[1350 1830  405  675]	[ 90 570 405 675]
697.846	1.0	2703773	2704773	ELCue	ANTI	112	4	False	red	40	[1350 1830  405  675]	[ 90 570 405 675]
