onset	duration	startTime	stopTime	eventIdentifier	trial_type	trial_number	block_number	is_practice	fixation_color	cue_side	aoi_correct	aoi_incorrect
0.152	2.0	1531556	1533588	ShowFixation	ANTI	1	1	True	red	180	[1035 1515  405  675]	[405 885 405 675]
2.184	0.2	1533588	1533824	BlankScreen	ANTI	1	1	True	red	180	[1035 1515  405  675]	[405 885 405 675]
2.42	1.0	1533824	1534865	ELCue	ANTI	1	1	True	red	180	[1035 1515  405  675]	[405 885 405 675]
3.878	2.0	1535282	1537909	ShowFixation	ANTI	2	1	True	red	600	[ 90 570 405 675]	[1350 1830  405  675]
6.505	0.2	1537909	1538145	BlankScreen	ANTI	2	1	True	red	600	[ 90 570 405 675]	[1350 1830  405  675]
6.741	1.0	1538145	1539186	ELCue	ANTI	2	1	True	red	600	[ 90 570 405 675]	[1350 1830  405  675]
8.2	6.0	1539604	1546230	ShowFixation	VGS	3	1	True	lime	460	[1035 1515  405  675]	[405 885 405 675]
14.826	0.2	1546230	1546470	BlankScreen	VGS	3	1	True	lime	460	[1035 1515  405  675]	[405 885 405 675]
15.066	1.0	1546470	1547511	ELCue	VGS	3	1	True	lime	460	[1035 1515  405  675]	[405 885 405 675]
16.525	2.0	1547929	1550555	ShowFixation	ANTI	4	1	True	red	460	[405 885 405 675]	[1035 1515  405  675]
19.151	0.2	1550555	1550792	BlankScreen	ANTI	4	1	True	red	460	[405 885 405 675]	[1035 1515  405  675]
19.388	1.0	1550792	1551829	ELCue	ANTI	4	1	True	red	460	[405 885 405 675]	[1035 1515  405  675]
20.831	2.0	1552235	1554844	ShowFixation	VGS	5	1	True	lime	600	[1350 1830  405  675]	[ 90 570 405 675]
23.44	0.2	1554844	1555063	BlankScreen	VGS	5	1	True	lime	600	[1350 1830  405  675]	[ 90 570 405 675]
23.659	1.0	1555063	1556085	ELCue	VGS	5	1	True	lime	600	[1350 1830  405  675]	[ 90 570 405 675]
25.102	6.0	1556506	1563131	ShowFixation	ANTI	6	1	True	red	40	[1350 1830  405  675]	[ 90 570 405 675]
31.727	0.2	1563131	1563371	BlankScreen	ANTI	6	1	True	red	40	[1350 1830  405  675]	[ 90 570 405 675]
31.967	1.0	1563371	1564411	ELCue	ANTI	6	1	True	red	40	[1350 1830  405  675]	[ 90 570 405 675]
33.424	2.0	1564828	1567456	ShowFixation	ANTI	7	1	True	red	40	[1350 1830  405  675]	[ 90 570 405 675]
36.052	0.2	1567456	1567692	BlankScreen	ANTI	7	1	True	red	40	[1350 1830  405  675]	[ 90 570 405 675]
36.288	1.0	1567692	1568731	ELCue	ANTI	7	1	True	red	40	[1350 1830  405  675]	[ 90 570 405 675]
37.749	2.0	1569153	1571761	ShowFixation	VGS	8	1	True	lime	460	[1035 1515  405  675]	[405 885 405 675]
40.357	0.2	1571761	1571979	BlankScreen	VGS	8	1	True	lime	460	[1035 1515  405  675]	[405 885 405 675]
40.575	1.0	1571979	1573002	ELCue	VGS	8	1	True	lime	460	[1035 1515  405  675]	[405 885 405 675]
41.982	6.0	1573386	1580048	ShowFixation	VGS	9	1	True	lime	180	[405 885 405 675]	[1035 1515  405  675]
48.644	0.2	1580048	1580287	BlankScreen	VGS	9	1	True	lime	180	[405 885 405 675]	[1035 1515  405  675]
48.883	1.0	1580287	1581327	ELCue	VGS	9	1	True	lime	180	[405 885 405 675]	[1035 1515  405  675]
50.339	6.0	1581743	1588356	ShowFixation	ANTI	10	1	True	red	460	[405 885 405 675]	[1035 1515  405  675]
56.952	0.2	1588356	1588596	BlankScreen	ANTI	10	1	True	red	460	[405 885 405 675]	[1035 1515  405  675]
57.192	1.0	1588596	1589633	ELCue	ANTI	10	1	True	red	460	[405 885 405 675]	[1035 1515  405  675]
58.648	6.0	1590052	1596681	ShowFixation	VGS	11	1	True	lime	600	[1350 1830  405  675]	[ 90 570 405 675]
65.277	0.2	1596681	1596921	BlankScreen	VGS	11	1	True	lime	600	[1350 1830  405  675]	[ 90 570 405 675]
65.517	1.0	1596921	1597961	ELCue	VGS	11	1	True	lime	600	[1350 1830  405  675]	[ 90 570 405 675]
66.973	6.0	1598377	1605006	ShowFixation	VGS	12	1	True	lime	40	[ 90 570 405 675]	[1350 1830  405  675]
73.602	0.2	1605006	1605245	BlankScreen	VGS	12	1	True	lime	40	[ 90 570 405 675]	[1350 1830  405  675]
73.841	1.0	1605245	1606286	ELCue	VGS	12	1	True	lime	40	[ 90 570 405 675]	[1350 1830  405  675]
75.302	6.0	1606706	1613331	ShowFixation	ANTI	13	1	True	red	180	[1035 1515  405  675]	[405 885 405 675]
81.927	0.2	1613331	1613570	BlankScreen	ANTI	13	1	True	red	180	[1035 1515  405  675]	[405 885 405 675]
82.166	1.0	1613570	1614611	ELCue	ANTI	13	1	True	red	180	[1035 1515  405  675]	[405 885 405 675]
83.623	2.0	1615027	1617656	ShowFixation	VGS	14	1	True	lime	40	[ 90 570 405 675]	[1350 1830  405  675]
86.252	0.2	1617656	1617891	BlankScreen	VGS	14	1	True	lime	40	[ 90 570 405 675]	[1350 1830  405  675]
86.487	1.0	1617891	1618928	ELCue	VGS	14	1	True	lime	40	[ 90 570 405 675]	[1350 1830  405  675]
87.945	2.0	1619349	1621977	ShowFixation	VGS	15	1	True	lime	180	[405 885 405 675]	[1035 1515  405  675]
90.573	0.2	1621977	1622212	BlankScreen	VGS	15	1	True	lime	180	[405 885 405 675]	[1035 1515  405  675]
90.808	1.0	1622212	1623253	ELCue	VGS	15	1	True	lime	180	[405 885 405 675]	[1035 1515  405  675]
92.264	6.0	1623668	1630298	ShowFixation	ANTI	16	1	True	red	600	[ 90 570 405 675]	[1350 1830  405  675]
98.894	0.2	1630298	1630537	BlankScreen	ANTI	16	1	True	red	600	[ 90 570 405 675]	[1350 1830  405  675]
99.133	1.0	1630537	1631578	ELCue	ANTI	16	1	True	red	600	[ 90 570 405 675]	[1350 1830  405  675]
143.044	2.0	1674448	1676481	ShowFixation	VGS	17	2	False	lime	180	[405 885 405 675]	[1035 1515  405  675]
145.077	0.2	1676481	1676716	BlankScreen	VGS	17	2	False	lime	180	[405 885 405 675]	[1035 1515  405  675]
145.312	1.0	1676716	1677716	ELCue	VGS	17	2	False	lime	180	[405 885 405 675]	[1035 1515  405  675]
146.736	2.0	1678140	1680168	ShowFixation	ANTI	18	2	False	red	600	[ 90 570 405 675]	[1350 1830  405  675]
148.764	0.2	1680168	1680403	BlankScreen	ANTI	18	2	False	red	600	[ 90 570 405 675]	[1350 1830  405  675]
148.999	1.0	1680403	1681403	ELCue	ANTI	18	2	False	red	600	[ 90 570 405 675]	[1350 1830  405  675]
150.423	2.0	1681827	1683856	ShowFixation	VGS	19	2	False	lime	180	[405 885 405 675]	[1035 1515  405  675]
152.452	0.2	1683856	1684090	BlankScreen	VGS	19	2	False	lime	180	[405 885 405 675]	[1035 1515  405  675]
152.686	1.0	1684090	1685090	ELCue	VGS	19	2	False	lime	180	[405 885 405 675]	[1035 1515  405  675]
154.108	6.0	1685512	1691542	ShowFixation	VGS	20	2	False	lime	180	[405 885 405 675]	[1035 1515  405  675]
160.138	0.2	1691542	1691781	BlankScreen	VGS	20	2	False	lime	180	[405 885 405 675]	[1035 1515  405  675]
160.377	1.0	1691781	1692781	ELCue	VGS	20	2	False	lime	180	[405 885 405 675]	[1035 1515  405  675]
161.802	6.0	1693206	1699233	ShowFixation	VGS	21	2	False	lime	180	[405 885 405 675]	[1035 1515  405  675]
167.829	0.2	1699233	1699472	BlankScreen	VGS	21	2	False	lime	180	[405 885 405 675]	[1035 1515  405  675]
168.068	1.0	1699472	1700472	ELCue	VGS	21	2	False	lime	180	[405 885 405 675]	[1035 1515  405  675]
169.49	6.0	1700894	1706924	ShowFixation	ANTI	22	2	False	red	180	[1035 1515  405  675]	[405 885 405 675]
175.52	0.2	1706924	1707163	BlankScreen	ANTI	22	2	False	red	180	[1035 1515  405  675]	[405 885 405 675]
175.759	1.0	1707163	1708163	ELCue	ANTI	22	2	False	red	180	[1035 1515  405  675]	[405 885 405 675]
177.181	6.0	1708585	1714615	ShowFixation	VGS	23	2	False	lime	40	[ 90 570 405 675]	[1350 1830  405  675]
183.211	0.2	1714615	1714854	BlankScreen	VGS	23	2	False	lime	40	[ 90 570 405 675]	[1350 1830  405  675]
183.451	1.0	1714855	1715855	ELCue	VGS	23	2	False	lime	40	[ 90 570 405 675]	[1350 1830  405  675]
184.872	6.0	1716276	1722305	ShowFixation	ANTI	24	2	False	red	40	[1350 1830  405  675]	[ 90 570 405 675]
190.902	0.2	1722306	1722545	BlankScreen	ANTI	24	2	False	red	40	[1350 1830  405  675]	[ 90 570 405 675]
191.142	1.0	1722546	1723546	ELCue	ANTI	24	2	False	red	40	[1350 1830  405  675]	[ 90 570 405 675]
192.564	6.0	1723968	1729997	ShowFixation	ANTI	25	2	False	red	600	[ 90 570 405 675]	[1350 1830  405  675]
198.593	0.2	1729997	1730237	BlankScreen	ANTI	25	2	False	red	600	[ 90 570 405 675]	[1350 1830  405  675]
198.833	1.0	1730237	1731237	ELCue	ANTI	25	2	False	red	600	[ 90 570 405 675]	[1350 1830  405  675]
200.254	6.0	1731658	1737688	ShowFixation	VGS	26	2	False	lime	460	[1035 1515  405  675]	[405 885 405 675]
206.284	0.2	1737688	1737927	BlankScreen	VGS	26	2	False	lime	460	[1035 1515  405  675]	[405 885 405 675]
206.524	1.0	1737928	1738928	ELCue	VGS	26	2	False	lime	460	[1035 1515  405  675]	[405 885 405 675]
207.945	2.0	1739349	1741379	ShowFixation	VGS	27	2	False	lime	460	[1035 1515  405  675]	[405 885 405 675]
209.975	0.2	1741379	1741615	BlankScreen	VGS	27	2	False	lime	460	[1035 1515  405  675]	[405 885 405 675]
210.211	1.0	1741615	1742615	ELCue	VGS	27	2	False	lime	460	[1035 1515  405  675]	[405 885 405 675]
211.63	6.0	1743034	1749066	ShowFixation	ANTI	28	2	False	red	600	[ 90 570 405 675]	[1350 1830  405  675]
217.662	0.2	1749066	1749306	BlankScreen	ANTI	28	2	False	red	600	[ 90 570 405 675]	[1350 1830  405  675]
217.902	1.0	1749306	1750306	ELCue	ANTI	28	2	False	red	600	[ 90 570 405 675]	[1350 1830  405  675]
219.323	2.0	1750727	1752757	ShowFixation	VGS	29	2	False	lime	460	[1035 1515  405  675]	[405 885 405 675]
221.353	0.2	1752757	1752993	BlankScreen	VGS	29	2	False	lime	460	[1035 1515  405  675]	[405 885 405 675]
221.589	1.0	1752993	1753993	ELCue	VGS	29	2	False	lime	460	[1035 1515  405  675]	[405 885 405 675]
223.014	6.0	1754418	1760444	ShowFixation	VGS	30	2	False	lime	40	[ 90 570 405 675]	[1350 1830  405  675]
229.04	0.2	1760444	1760683	BlankScreen	VGS	30	2	False	lime	40	[ 90 570 405 675]	[1350 1830  405  675]
229.279	1.0	1760683	1761683	ELCue	VGS	30	2	False	lime	40	[ 90 570 405 675]	[1350 1830  405  675]
230.702	6.0	1762106	1768135	ShowFixation	VGS	31	2	False	lime	600	[1350 1830  405  675]	[ 90 570 405 675]
236.731	0.2	1768135	1768374	BlankScreen	VGS	31	2	False	lime	600	[1350 1830  405  675]	[ 90 570 405 675]
236.97	1.0	1768374	1769374	ELCue	VGS	31	2	False	lime	600	[1350 1830  405  675]	[ 90 570 405 675]
238.393	2.0	1769797	1771826	ShowFixation	VGS	32	2	False	lime	40	[ 90 570 405 675]	[1350 1830  405  675]
240.422	0.2	1771826	1772061	BlankScreen	VGS	32	2	False	lime	40	[ 90 570 405 675]	[1350 1830  405  675]
240.657	1.0	1772061	1773061	ELCue	VGS	32	2	False	lime	40	[ 90 570 405 675]	[1350 1830  405  675]
242.079	6.0	1773483	1779513	ShowFixation	ANTI	33	2	False	red	40	[1350 1830  405  675]	[ 90 570 405 675]
248.109	0.2	1779513	1779752	BlankScreen	ANTI	33	2	False	red	40	[1350 1830  405  675]	[ 90 570 405 675]
248.348	1.0	1779752	1780752	ELCue	ANTI	33	2	False	red	40	[1350 1830  405  675]	[ 90 570 405 675]
249.766	2.0	1781170	1783204	ShowFixation	VGS	34	2	False	lime	600	[1350 1830  405  675]	[ 90 570 405 675]
251.8	0.2	1783204	1783439	BlankScreen	VGS	34	2	False	lime	600	[1350 1830  405  675]	[ 90 570 405 675]
252.035	1.0	1783439	1784439	ELCue	VGS	34	2	False	lime	600	[1350 1830  405  675]	[ 90 570 405 675]
253.457	2.0	1784861	1786891	ShowFixation	ANTI	35	2	False	red	600	[ 90 570 405 675]	[1350 1830  405  675]
255.487	0.2	1786891	1787126	BlankScreen	ANTI	35	2	False	red	600	[ 90 570 405 675]	[1350 1830  405  675]
255.722	1.0	1787126	1788126	ELCue	ANTI	35	2	False	red	600	[ 90 570 405 675]	[1350 1830  405  675]
257.141	2.0	1788545	1790578	ShowFixation	ANTI	36	2	False	red	180	[1035 1515  405  675]	[405 885 405 675]
259.174	0.2	1790578	1790813	BlankScreen	ANTI	36	2	False	red	180	[1035 1515  405  675]	[405 885 405 675]
259.409	1.0	1790813	1791813	ELCue	ANTI	36	2	False	red	180	[1035 1515  405  675]	[405 885 405 675]
260.83	6.0	1792234	1798265	ShowFixation	ANTI	37	2	False	red	460	[405 885 405 675]	[1035 1515  405  675]
266.861	0.2	1798265	1798504	BlankScreen	ANTI	37	2	False	red	460	[405 885 405 675]	[1035 1515  405  675]
267.1	1.0	1798504	1799504	ELCue	ANTI	37	2	False	red	460	[405 885 405 675]	[1035 1515  405  675]
268.525	6.0	1799929	1805956	ShowFixation	VGS	38	2	False	lime	600	[1350 1830  405  675]	[ 90 570 405 675]
274.552	0.2	1805956	1806195	BlankScreen	VGS	38	2	False	lime	600	[1350 1830  405  675]	[ 90 570 405 675]
274.791	1.0	1806195	1807195	ELCue	VGS	38	2	False	lime	600	[1350 1830  405  675]	[ 90 570 405 675]
276.209	6.0	1807613	1813647	ShowFixation	ANTI	39	2	False	red	180	[1035 1515  405  675]	[405 885 405 675]
282.243	0.2	1813647	1813886	BlankScreen	ANTI	39	2	False	red	180	[1035 1515  405  675]	[405 885 405 675]
282.482	1.0	1813886	1814886	ELCue	ANTI	39	2	False	red	180	[1035 1515  405  675]	[405 885 405 675]
283.906	6.0	1815310	1821338	ShowFixation	ANTI	40	2	False	red	460	[405 885 405 675]	[1035 1515  405  675]
289.934	0.2	1821338	1821577	BlankScreen	ANTI	40	2	False	red	460	[405 885 405 675]	[1035 1515  405  675]
290.173	1.0	1821577	1822577	ELCue	ANTI	40	2	False	red	460	[405 885 405 675]	[1035 1515  405  675]
291.595	2.0	1822999	1825029	ShowFixation	VGS	41	2	False	lime	40	[ 90 570 405 675]	[1350 1830  405  675]
293.625	0.2	1825029	1825264	BlankScreen	VGS	41	2	False	lime	40	[ 90 570 405 675]	[1350 1830  405  675]
293.86	1.0	1825264	1826264	ELCue	VGS	41	2	False	lime	40	[ 90 570 405 675]	[1350 1830  405  675]
295.283	2.0	1826687	1828716	ShowFixation	ANTI	42	2	False	red	40	[1350 1830  405  675]	[ 90 570 405 675]
297.312	0.2	1828716	1828951	BlankScreen	ANTI	42	2	False	red	40	[1350 1830  405  675]	[ 90 570 405 675]
297.547	1.0	1828951	1829951	ELCue	ANTI	42	2	False	red	40	[1350 1830  405  675]	[ 90 570 405 675]
298.966	6.0	1830370	1836403	ShowFixation	VGS	43	2	False	lime	460	[1035 1515  405  675]	[405 885 405 675]
304.999	0.2	1836403	1836642	BlankScreen	VGS	43	2	False	lime	460	[1035 1515  405  675]	[405 885 405 675]
305.238	1.0	1836642	1837642	ELCue	VGS	43	2	False	lime	460	[1035 1515  405  675]	[405 885 405 675]
306.662	2.0	1838066	1840094	ShowFixation	ANTI	44	2	False	red	460	[405 885 405 675]	[1035 1515  405  675]
308.69	0.2	1840094	1840329	BlankScreen	ANTI	44	2	False	red	460	[405 885 405 675]	[1035 1515  405  675]
308.925	1.0	1840329	1841329	ELCue	ANTI	44	2	False	red	460	[405 885 405 675]	[1035 1515  405  675]
310.344	2.0	1841748	1843781	ShowFixation	ANTI	45	2	False	red	460	[405 885 405 675]	[1035 1515  405  675]
312.377	0.2	1843781	1844016	BlankScreen	ANTI	45	2	False	red	460	[405 885 405 675]	[1035 1515  405  675]
312.612	1.0	1844016	1845016	ELCue	ANTI	45	2	False	red	460	[405 885 405 675]	[1035 1515  405  675]
314.036	2.0	1845440	1847468	ShowFixation	ANTI	46	2	False	red	180	[1035 1515  405  675]	[405 885 405 675]
316.064	0.2	1847468	1847703	BlankScreen	ANTI	46	2	False	red	180	[1035 1515  405  675]	[405 885 405 675]
316.299	1.0	1847703	1848703	ELCue	ANTI	46	2	False	red	180	[1035 1515  405  675]	[405 885 405 675]
317.718	2.0	1849122	1851155	ShowFixation	VGS	47	2	False	lime	600	[1350 1830  405  675]	[ 90 570 405 675]
319.751	0.2	1851155	1851390	BlankScreen	VGS	47	2	False	lime	600	[1350 1830  405  675]	[ 90 570 405 675]
319.986	1.0	1851390	1852390	ELCue	VGS	47	2	False	lime	600	[1350 1830  405  675]	[ 90 570 405 675]
321.406	2.0	1852810	1854841	ShowFixation	ANTI	48	2	False	red	40	[1350 1830  405  675]	[ 90 570 405 675]
323.437	0.2	1854841	1855077	BlankScreen	ANTI	48	2	False	red	40	[1350 1830  405  675]	[ 90 570 405 675]
323.673	1.0	1855077	1856077	ELCue	ANTI	48	2	False	red	40	[1350 1830  405  675]	[ 90 570 405 675]
422.745	6.0	1954149	1960176	ShowFixation	VGS	49	3	False	lime	460	[1035 1515  405  675]	[405 885 405 675]
428.772	0.2	1960176	1960415	BlankScreen	VGS	49	3	False	lime	460	[1035 1515  405  675]	[405 885 405 675]
429.011	1.0	1960415	1961415	ELCue	VGS	49	3	False	lime	460	[1035 1515  405  675]	[405 885 405 675]
430.433	6.0	1961837	1967867	ShowFixation	ANTI	50	3	False	red	180	[1035 1515  405  675]	[405 885 405 675]
436.463	0.2	1967867	1968106	BlankScreen	ANTI	50	3	False	red	180	[1035 1515  405  675]	[405 885 405 675]
436.702	1.0	1968106	1969106	ELCue	ANTI	50	3	False	red	180	[1035 1515  405  675]	[405 885 405 675]
438.126	6.0	1969530	1975558	ShowFixation	VGS	51	3	False	lime	40	[ 90 570 405 675]	[1350 1830  405  675]
444.154	0.2	1975558	1975797	BlankScreen	VGS	51	3	False	lime	40	[ 90 570 405 675]	[1350 1830  405  675]
444.393	1.0	1975797	1976797	ELCue	VGS	51	3	False	lime	40	[ 90 570 405 675]	[1350 1830  405  675]
445.815	2.0	1977219	1979249	ShowFixation	VGS	52	3	False	lime	600	[1350 1830  405  675]	[ 90 570 405 675]
447.845	0.2	1979249	1979484	BlankScreen	VGS	52	3	False	lime	600	[1350 1830  405  675]	[ 90 570 405 675]
448.08	1.0	1979484	1980484	ELCue	VGS	52	3	False	lime	600	[1350 1830  405  675]	[ 90 570 405 675]
449.505	6.0	1980909	1986936	ShowFixation	ANTI	53	3	False	red	460	[405 885 405 675]	[1035 1515  405  675]
455.532	0.2	1986936	1987175	BlankScreen	ANTI	53	3	False	red	460	[405 885 405 675]	[1035 1515  405  675]
455.771	1.0	1987175	1988175	ELCue	ANTI	53	3	False	red	460	[405 885 405 675]	[1035 1515  405  675]
457.192	6.0	1988596	1994627	ShowFixation	VGS	54	3	False	lime	40	[ 90 570 405 675]	[1350 1830  405  675]
463.223	0.2	1994627	1994866	BlankScreen	VGS	54	3	False	lime	40	[ 90 570 405 675]	[1350 1830  405  675]
463.462	1.0	1994866	1995866	ELCue	VGS	54	3	False	lime	40	[ 90 570 405 675]	[1350 1830  405  675]
464.886	2.0	1996290	1998318	ShowFixation	ANTI	55	3	False	red	180	[1035 1515  405  675]	[405 885 405 675]
466.914	0.2	1998318	1998553	BlankScreen	ANTI	55	3	False	red	180	[1035 1515  405  675]	[405 885 405 675]
467.149	1.0	1998553	1999553	ELCue	ANTI	55	3	False	red	180	[1035 1515  405  675]	[405 885 405 675]
468.571	2.0	1999975	2002005	ShowFixation	VGS	56	3	False	lime	460	[1035 1515  405  675]	[405 885 405 675]
470.601	0.2	2002005	2002240	BlankScreen	VGS	56	3	False	lime	460	[1035 1515  405  675]	[405 885 405 675]
470.836	1.0	2002240	2003240	ELCue	VGS	56	3	False	lime	460	[1035 1515  405  675]	[405 885 405 675]
472.253	6.0	2003657	2009692	ShowFixation	VGS	57	3	False	lime	180	[405 885 405 675]	[1035 1515  405  675]
478.288	0.2	2009692	2009931	BlankScreen	VGS	57	3	False	lime	180	[405 885 405 675]	[1035 1515  405  675]
478.527	1.0	2009931	2010931	ELCue	VGS	57	3	False	lime	180	[405 885 405 675]	[1035 1515  405  675]
479.91	6.0	2011314	2017349	ShowFixation	ANTI	58	3	False	red	460	[405 885 405 675]	[1035 1515  405  675]
485.945	0.2	2017349	2017589	BlankScreen	ANTI	58	3	False	red	460	[405 885 405 675]	[1035 1515  405  675]
486.185	1.0	2017589	2018589	ELCue	ANTI	58	3	False	red	460	[405 885 405 675]	[1035 1515  405  675]
487.607	6.0	2019011	2025040	ShowFixation	ANTI	59	3	False	red	600	[ 90 570 405 675]	[1350 1830  405  675]
493.636	0.2	2025040	2025279	BlankScreen	ANTI	59	3	False	red	600	[ 90 570 405 675]	[1350 1830  405  675]
493.875	1.0	2025279	2026279	ELCue	ANTI	59	3	False	red	600	[ 90 570 405 675]	[1350 1830  405  675]
495.298	2.0	2026702	2028731	ShowFixation	ANTI	60	3	False	red	460	[405 885 405 675]	[1035 1515  405  675]
497.327	0.2	2028731	2028966	BlankScreen	ANTI	60	3	False	red	460	[405 885 405 675]	[1035 1515  405  675]
497.562	1.0	2028966	2029966	ELCue	ANTI	60	3	False	red	460	[405 885 405 675]	[1035 1515  405  675]
498.986	2.0	2030390	2032418	ShowFixation	VGS	61	3	False	lime	180	[405 885 405 675]	[1035 1515  405  675]
501.014	0.2	2032418	2032653	BlankScreen	VGS	61	3	False	lime	180	[405 885 405 675]	[1035 1515  405  675]
501.249	1.0	2032653	2033653	ELCue	VGS	61	3	False	lime	180	[405 885 405 675]	[1035 1515  405  675]
502.676	6.0	2034080	2040105	ShowFixation	VGS	62	3	False	lime	180	[405 885 405 675]	[1035 1515  405  675]
508.701	0.2	2040105	2040344	BlankScreen	VGS	62	3	False	lime	180	[405 885 405 675]	[1035 1515  405  675]
508.94	1.0	2040344	2041344	ELCue	VGS	62	3	False	lime	180	[405 885 405 675]	[1035 1515  405  675]
510.364	6.0	2041768	2047796	ShowFixation	VGS	63	3	False	lime	460	[1035 1515  405  675]	[405 885 405 675]
516.392	0.2	2047796	2048035	BlankScreen	VGS	63	3	False	lime	460	[1035 1515  405  675]	[405 885 405 675]
516.631	1.0	2048035	2049035	ELCue	VGS	63	3	False	lime	460	[1035 1515  405  675]	[405 885 405 675]
518.054	2.0	2049458	2051487	ShowFixation	ANTI	64	3	False	red	600	[ 90 570 405 675]	[1350 1830  405  675]
520.083	0.2	2051487	2051722	BlankScreen	ANTI	64	3	False	red	600	[ 90 570 405 675]	[1350 1830  405  675]
520.318	1.0	2051722	2052722	ELCue	ANTI	64	3	False	red	600	[ 90 570 405 675]	[1350 1830  405  675]
521.736	6.0	2053140	2059174	ShowFixation	VGS	65	3	False	lime	600	[1350 1830  405  675]	[ 90 570 405 675]
527.77	0.2	2059174	2059413	BlankScreen	VGS	65	3	False	lime	600	[1350 1830  405  675]	[ 90 570 405 675]
528.009	1.0	2059413	2060413	ELCue	VGS	65	3	False	lime	600	[1350 1830  405  675]	[ 90 570 405 675]
529.415	2.0	2060819	2062849	ShowFixation	VGS	66	3	False	lime	600	[1350 1830  405  675]	[ 90 570 405 675]
531.445	0.2	2062849	2063084	BlankScreen	VGS	66	3	False	lime	600	[1350 1830  405  675]	[ 90 570 405 675]
531.68	1.0	2063084	2064084	ELCue	VGS	66	3	False	lime	600	[1350 1830  405  675]	[ 90 570 405 675]
533.1	6.0	2064504	2070535	ShowFixation	ANTI	67	3	False	red	40	[1350 1830  405  675]	[ 90 570 405 675]
539.131	0.2	2070535	2070774	BlankScreen	ANTI	67	3	False	red	40	[1350 1830  405  675]	[ 90 570 405 675]
539.37	1.0	2070774	2071774	ELCue	ANTI	67	3	False	red	40	[1350 1830  405  675]	[ 90 570 405 675]
540.794	2.0	2072198	2074226	ShowFixation	VGS	68	3	False	lime	40	[ 90 570 405 675]	[1350 1830  405  675]
542.822	0.2	2074226	2074461	BlankScreen	VGS	68	3	False	lime	40	[ 90 570 405 675]	[1350 1830  405  675]
543.057	1.0	2074461	2075461	ELCue	VGS	68	3	False	lime	40	[ 90 570 405 675]	[1350 1830  405  675]
544.478	2.0	2075882	2077913	ShowFixation	ANTI	69	3	False	red	600	[ 90 570 405 675]	[1350 1830  405  675]
546.509	0.2	2077913	2078148	BlankScreen	ANTI	69	3	False	red	600	[ 90 570 405 675]	[1350 1830  405  675]
546.744	1.0	2078148	2079148	ELCue	ANTI	69	3	False	red	600	[ 90 570 405 675]	[1350 1830  405  675]
548.166	2.0	2079570	2081600	ShowFixation	ANTI	70	3	False	red	460	[405 885 405 675]	[1035 1515  405  675]
550.196	0.2	2081600	2081835	BlankScreen	ANTI	70	3	False	red	460	[405 885 405 675]	[1035 1515  405  675]
550.431	1.0	2081835	2082835	ELCue	ANTI	70	3	False	red	460	[405 885 405 675]	[1035 1515  405  675]
551.856	2.0	2083260	2085287	ShowFixation	ANTI	71	3	False	red	40	[1350 1830  405  675]	[ 90 570 405 675]
553.883	0.2	2085287	2085522	BlankScreen	ANTI	71	3	False	red	40	[1350 1830  405  675]	[ 90 570 405 675]
554.118	1.0	2085522	2086522	ELCue	ANTI	71	3	False	red	40	[1350 1830  405  675]	[ 90 570 405 675]
555.54	2.0	2086944	2088974	ShowFixation	ANTI	72	3	False	red	40	[1350 1830  405  675]	[ 90 570 405 675]
557.57	0.2	2088974	2089209	BlankScreen	ANTI	72	3	False	red	40	[1350 1830  405  675]	[ 90 570 405 675]
557.805	1.0	2089209	2090209	ELCue	ANTI	72	3	False	red	40	[1350 1830  405  675]	[ 90 570 405 675]
559.224	2.0	2090628	2092661	ShowFixation	ANTI	73	3	False	red	180	[1035 1515  405  675]	[405 885 405 675]
561.257	0.2	2092661	2092896	BlankScreen	ANTI	73	3	False	red	180	[1035 1515  405  675]	[405 885 405 675]
561.492	1.0	2092896	2093896	ELCue	ANTI	73	3	False	red	180	[1035 1515  405  675]	[405 885 405 675]
562.916	6.0	2094320	2100348	ShowFixation	ANTI	74	3	False	red	180	[1035 1515  405  675]	[405 885 405 675]
568.944	0.2	2100348	2100587	BlankScreen	ANTI	74	3	False	red	180	[1035 1515  405  675]	[405 885 405 675]
569.183	1.0	2100587	2101587	ELCue	ANTI	74	3	False	red	180	[1035 1515  405  675]	[405 885 405 675]
570.61	2.0	2102014	2104039	ShowFixation	VGS	75	3	False	lime	40	[ 90 570 405 675]	[1350 1830  405  675]
572.635	0.2	2104039	2104274	BlankScreen	VGS	75	3	False	lime	40	[ 90 570 405 675]	[1350 1830  405  675]
572.87	1.0	2104274	2105274	ELCue	VGS	75	3	False	lime	40	[ 90 570 405 675]	[1350 1830  405  675]
574.291	6.0	2105695	2111727	ShowFixation	ANTI	76	3	False	red	600	[ 90 570 405 675]	[1350 1830  405  675]
580.323	0.2	2111727	2111965	BlankScreen	ANTI	76	3	False	red	600	[ 90 570 405 675]	[1350 1830  405  675]
580.561	1.0	2111965	2112965	ELCue	ANTI	76	3	False	red	600	[ 90 570 405 675]	[1350 1830  405  675]
581.985	2.0	2113389	2115418	ShowFixation	VGS	77	3	False	lime	180	[405 885 405 675]	[1035 1515  405  675]
584.014	0.2	2115418	2115652	BlankScreen	VGS	77	3	False	lime	180	[405 885 405 675]	[1035 1515  405  675]
584.249	1.0	2115653	2116653	ELCue	VGS	77	3	False	lime	180	[405 885 405 675]	[1035 1515  405  675]
585.674	6.0	2117078	2123105	ShowFixation	ANTI	78	3	False	red	40	[1350 1830  405  675]	[ 90 570 405 675]
591.701	0.2	2123105	2123344	BlankScreen	ANTI	78	3	False	red	40	[1350 1830  405  675]	[ 90 570 405 675]
591.94	1.0	2123344	2124344	ELCue	ANTI	78	3	False	red	40	[1350 1830  405  675]	[ 90 570 405 675]
593.363	2.0	2124767	2126795	ShowFixation	VGS	79	3	False	lime	460	[1035 1515  405  675]	[405 885 405 675]
595.391	0.2	2126795	2127030	BlankScreen	VGS	79	3	False	lime	460	[1035 1515  405  675]	[405 885 405 675]
595.626	1.0	2127030	2128030	ELCue	VGS	79	3	False	lime	460	[1035 1515  405  675]	[405 885 405 675]
597.032	6.0	2128436	2134465	ShowFixation	VGS	80	3	False	lime	600	[1350 1830  405  675]	[ 90 570 405 675]
603.061	0.2	2134465	2134704	BlankScreen	VGS	80	3	False	lime	600	[1350 1830  405  675]	[ 90 570 405 675]
603.3	1.0	2134704	2135704	ELCue	VGS	80	3	False	lime	600	[1350 1830  405  675]	[ 90 570 405 675]
690.591	6.0	2221995	2228025	ShowFixation	VGS	81	4	False	lime	600	[1350 1830  405  675]	[ 90 570 405 675]
696.621	0.2	2228025	2228265	BlankScreen	VGS	81	4	False	lime	600	[1350 1830  405  675]	[ 90 570 405 675]
696.861	1.0	2228265	2229265	ELCue	VGS	81	4	False	lime	600	[1350 1830  405  675]	[ 90 570 405 675]
698.283	2.0	2229687	2231716	ShowFixation	VGS	82	4	False	lime	600	[1350 1830  405  675]	[ 90 570 405 675]
700.312	0.2	2231716	2231951	BlankScreen	VGS	82	4	False	lime	600	[1350 1830  405  675]	[ 90 570 405 675]
700.547	1.0	2231951	2232951	ELCue	VGS	82	4	False	lime	600	[1350 1830  405  675]	[ 90 570 405 675]
701.956	6.0	2233360	2239386	ShowFixation	ANTI	83	4	False	red	600	[ 90 570 405 675]	[1350 1830  405  675]
707.982	0.2	2239386	2239626	BlankScreen	ANTI	83	4	False	red	600	[ 90 570 405 675]	[1350 1830  405  675]
708.222	1.0	2239626	2240626	ELCue	ANTI	83	4	False	red	600	[ 90 570 405 675]	[1350 1830  405  675]
709.625	2.0	2241029	2243061	ShowFixation	VGS	84	4	False	lime	460	[1035 1515  405  675]	[405 885 405 675]
711.657	0.2	2243061	2243296	BlankScreen	VGS	84	4	False	lime	460	[1035 1515  405  675]	[405 885 405 675]
711.892	1.0	2243296	2244296	ELCue	VGS	84	4	False	lime	460	[1035 1515  405  675]	[405 885 405 675]
713.316	6.0	2244720	2250748	ShowFixation	ANTI	85	4	False	red	40	[1350 1830  405  675]	[ 90 570 405 675]
719.344	0.2	2250748	2250987	BlankScreen	ANTI	85	4	False	red	40	[1350 1830  405  675]	[ 90 570 405 675]
719.583	1.0	2250987	2251987	ELCue	ANTI	85	4	False	red	40	[1350 1830  405  675]	[ 90 570 405 675]
721.008	2.0	2252412	2254439	ShowFixation	ANTI	86	4	False	red	180	[1035 1515  405  675]	[405 885 405 675]
723.035	0.2	2254439	2254674	BlankScreen	ANTI	86	4	False	red	180	[1035 1515  405  675]	[405 885 405 675]
723.27	1.0	2254674	2255674	ELCue	ANTI	86	4	False	red	180	[1035 1515  405  675]	[405 885 405 675]
724.692	6.0	2256096	2262126	ShowFixation	ANTI	87	4	False	red	40	[1350 1830  405  675]	[ 90 570 405 675]
730.722	0.2	2262126	2262365	BlankScreen	ANTI	87	4	False	red	40	[1350 1830  405  675]	[ 90 570 405 675]
730.961	1.0	2262365	2263365	ELCue	ANTI	87	4	False	red	40	[1350 1830  405  675]	[ 90 570 405 675]
732.383	6.0	2263787	2269817	ShowFixation	VGS	88	4	False	lime	180	[405 885 405 675]	[1035 1515  405  675]
738.413	0.2	2269817	2270056	BlankScreen	VGS	88	4	False	lime	180	[405 885 405 675]	[1035 1515  405  675]
738.652	1.0	2270056	2271056	ELCue	VGS	88	4	False	lime	180	[405 885 405 675]	[1035 1515  405  675]
740.077	2.0	2271481	2273507	ShowFixation	ANTI	89	4	False	red	600	[ 90 570 405 675]	[1350 1830  405  675]
742.103	0.2	2273507	2273743	BlankScreen	ANTI	89	4	False	red	600	[ 90 570 405 675]	[1350 1830  405  675]
742.339	1.0	2273743	2274743	ELCue	ANTI	89	4	False	red	600	[ 90 570 405 675]	[1350 1830  405  675]
743.743	2.0	2275147	2277178	ShowFixation	VGS	90	4	False	lime	180	[405 885 405 675]	[1035 1515  405  675]
745.774	0.2	2277178	2277413	BlankScreen	VGS	90	4	False	lime	180	[405 885 405 675]	[1035 1515  405  675]
746.009	1.0	2277413	2278413	ELCue	VGS	90	4	False	lime	180	[405 885 405 675]	[1035 1515  405  675]
747.434	2.0	2278838	2280865	ShowFixation	ANTI	91	4	False	red	460	[405 885 405 675]	[1035 1515  405  675]
749.461	0.2	2280865	2281100	BlankScreen	ANTI	91	4	False	red	460	[405 885 405 675]	[1035 1515  405  675]
749.696	1.0	2281100	2282100	ELCue	ANTI	91	4	False	red	460	[405 885 405 675]	[1035 1515  405  675]
751.116	6.0	2282520	2288552	ShowFixation	VGS	92	4	False	lime	460	[1035 1515  405  675]	[405 885 405 675]
757.148	0.2	2288552	2288791	BlankScreen	VGS	92	4	False	lime	460	[1035 1515  405  675]	[405 885 405 675]
757.387	1.0	2288791	2289791	ELCue	VGS	92	4	False	lime	460	[1035 1515  405  675]	[405 885 405 675]
758.806	6.0	2290210	2296243	ShowFixation	ANTI	93	4	False	red	180	[1035 1515  405  675]	[405 885 405 675]
764.839	0.2	2296243	2296482	BlankScreen	ANTI	93	4	False	red	180	[1035 1515  405  675]	[405 885 405 675]
765.078	1.0	2296482	2297482	ELCue	ANTI	93	4	False	red	180	[1035 1515  405  675]	[405 885 405 675]
766.502	2.0	2297906	2299934	ShowFixation	ANTI	94	4	False	red	600	[ 90 570 405 675]	[1350 1830  405  675]
768.53	0.2	2299934	2300169	BlankScreen	ANTI	94	4	False	red	600	[ 90 570 405 675]	[1350 1830  405  675]
768.765	1.0	2300169	2301169	ELCue	ANTI	94	4	False	red	600	[ 90 570 405 675]	[1350 1830  405  675]
770.19	2.0	2301594	2303621	ShowFixation	VGS	95	4	False	lime	40	[ 90 570 405 675]	[1350 1830  405  675]
772.217	0.2	2303621	2303856	BlankScreen	VGS	95	4	False	lime	40	[ 90 570 405 675]	[1350 1830  405  675]
772.452	1.0	2303856	2304856	ELCue	VGS	95	4	False	lime	40	[ 90 570 405 675]	[1350 1830  405  675]
773.881	6.0	2305285	2311324	ShowFixation	VGS	96	4	False	lime	600	[1350 1830  405  675]	[ 90 570 405 675]
779.921	0.2	2311325	2311564	BlankScreen	VGS	96	4	False	lime	600	[1350 1830  405  675]	[ 90 570 405 675]
780.161	1.0	2311565	2312565	ELCue	VGS	96	4	False	lime	600	[1350 1830  405  675]	[ 90 570 405 675]
781.584	2.0	2312988	2315015	ShowFixation	ANTI	97	4	False	red	40	[1350 1830  405  675]	[ 90 570 405 675]
783.612	0.2	2315016	2315251	BlankScreen	ANTI	97	4	False	red	40	[1350 1830  405  675]	[ 90 570 405 675]
783.847	1.0	2315251	2316251	ELCue	ANTI	97	4	False	red	40	[1350 1830  405  675]	[ 90 570 405 675]
785.266	2.0	2316670	2318702	ShowFixation	ANTI	98	4	False	red	460	[405 885 405 675]	[1035 1515  405  675]
787.298	0.2	2318702	2318938	BlankScreen	ANTI	98	4	False	red	460	[405 885 405 675]	[1035 1515  405  675]
787.535	1.0	2318939	2319939	ELCue	ANTI	98	4	False	red	460	[405 885 405 675]	[1035 1515  405  675]
788.96	6.0	2320364	2326389	ShowFixation	ANTI	99	4	False	red	460	[405 885 405 675]	[1035 1515  405  675]
794.985	0.2	2326389	2326629	BlankScreen	ANTI	99	4	False	red	460	[405 885 405 675]	[1035 1515  405  675]
795.225	1.0	2326629	2327629	ELCue	ANTI	99	4	False	red	460	[405 885 405 675]	[1035 1515  405  675]
796.644	6.0	2328048	2334081	ShowFixation	ANTI	100	4	False	red	600	[ 90 570 405 675]	[1350 1830  405  675]
802.677	0.2	2334081	2334320	BlankScreen	ANTI	100	4	False	red	600	[ 90 570 405 675]	[1350 1830  405  675]
802.916	1.0	2334320	2335320	ELCue	ANTI	100	4	False	red	600	[ 90 570 405 675]	[1350 1830  405  675]
804.34	2.0	2335744	2337772	ShowFixation	ANTI	101	4	False	red	180	[1035 1515  405  675]	[405 885 405 675]
806.368	0.2	2337772	2338007	BlankScreen	ANTI	101	4	False	red	180	[1035 1515  405  675]	[405 885 405 675]
806.603	1.0	2338007	2339007	ELCue	ANTI	101	4	False	red	180	[1035 1515  405  675]	[405 885 405 675]
808.002	6.0	2339406	2345442	ShowFixation	VGS	102	4	False	lime	40	[ 90 570 405 675]	[1350 1830  405  675]
814.038	0.2	2345442	2345682	BlankScreen	VGS	102	4	False	lime	40	[ 90 570 405 675]	[1350 1830  405  675]
814.278	1.0	2345682	2346682	ELCue	VGS	102	4	False	lime	40	[ 90 570 405 675]	[1350 1830  405  675]
815.681	6.0	2347085	2353117	ShowFixation	VGS	103	4	False	lime	40	[ 90 570 405 675]	[1350 1830  405  675]
821.713	0.2	2353117	2353356	BlankScreen	VGS	103	4	False	lime	40	[ 90 570 405 675]	[1350 1830  405  675]
821.952	1.0	2353356	2354356	ELCue	VGS	103	4	False	lime	40	[ 90 570 405 675]	[1350 1830  405  675]
823.373	2.0	2354777	2356808	ShowFixation	VGS	104	4	False	lime	180	[405 885 405 675]	[1035 1515  405  675]
825.404	0.2	2356808	2357043	BlankScreen	VGS	104	4	False	lime	180	[405 885 405 675]	[1035 1515  405  675]
825.639	1.0	2357043	2358043	ELCue	VGS	104	4	False	lime	180	[405 885 405 675]	[1035 1515  405  675]
827.057	6.0	2358461	2364494	ShowFixation	VGS	105	4	False	lime	460	[1035 1515  405  675]	[405 885 405 675]
833.09	0.2	2364494	2364734	BlankScreen	VGS	105	4	False	lime	460	[1035 1515  405  675]	[405 885 405 675]
833.33	1.0	2364734	2365734	ELCue	VGS	105	4	False	lime	460	[1035 1515  405  675]	[405 885 405 675]
834.75	2.0	2366154	2368185	ShowFixation	ANTI	106	4	False	red	40	[1350 1830  405  675]	[ 90 570 405 675]
836.781	0.2	2368185	2368421	BlankScreen	ANTI	106	4	False	red	40	[1350 1830  405  675]	[ 90 570 405 675]
837.017	1.0	2368421	2369421	ELCue	ANTI	106	4	False	red	40	[1350 1830  405  675]	[ 90 570 405 675]
838.443	2.0	2369847	2371872	ShowFixation	VGS	107	4	False	lime	460	[1035 1515  405  675]	[405 885 405 675]
840.468	0.2	2371872	2372108	BlankScreen	VGS	107	4	False	lime	460	[1035 1515  405  675]	[405 885 405 675]
840.704	1.0	2372108	2373108	ELCue	VGS	107	4	False	lime	460	[1035 1515  405  675]	[405 885 405 675]
842.123	6.0	2373527	2379559	ShowFixation	VGS	108	4	False	lime	180	[405 885 405 675]	[1035 1515  405  675]
848.155	0.2	2379559	2379799	BlankScreen	VGS	108	4	False	lime	180	[405 885 405 675]	[1035 1515  405  675]
848.395	1.0	2379799	2380799	ELCue	VGS	108	4	False	lime	180	[405 885 405 675]	[1035 1515  405  675]
849.814	6.0	2381218	2387250	ShowFixation	ANTI	109	4	False	red	460	[405 885 405 675]	[1035 1515  405  675]
855.846	0.2	2387250	2387490	BlankScreen	ANTI	109	4	False	red	460	[405 885 405 675]	[1035 1515  405  675]
856.086	1.0	2387490	2388490	ELCue	ANTI	109	4	False	red	460	[405 885 405 675]	[1035 1515  405  675]
857.5	2.0	2388904	2390941	ShowFixation	VGS	110	4	False	lime	600	[1350 1830  405  675]	[ 90 570 405 675]
859.537	0.2	2390941	2391177	BlankScreen	VGS	110	4	False	lime	600	[1350 1830  405  675]	[ 90 570 405 675]
859.773	1.0	2391177	2392177	ELCue	VGS	110	4	False	lime	600	[1350 1830  405  675]	[ 90 570 405 675]
861.195	2.0	2392599	2394628	ShowFixation	VGS	111	4	False	lime	40	[ 90 570 405 675]	[1350 1830  405  675]
863.224	0.2	2394628	2394864	BlankScreen	VGS	111	4	False	lime	40	[ 90 570 405 675]	[1350 1830  405  675]
863.46	1.0	2394864	2395864	ELCue	VGS	111	4	False	lime	40	[ 90 570 405 675]	[1350 1830  405  675]
864.884	6.0	2396288	2402315	ShowFixation	ANTI	112	4	False	red	180	[1035 1515  405  675]	[405 885 405 675]
870.911	0.2	2402315	2402555	BlankScreen	ANTI	112	4	False	red	180	[1035 1515  405  675]	[405 885 405 675]
871.151	1.0	2402555	2403555	ELCue	ANTI	112	4	False	red	180	[1035 1515  405  675]	[405 885 405 675]
