onset	duration	startTime	stopTime	eventIdentifier	trial_type	trial_number	block_number	is_practice	fixation_color	cue_side	aoi_correct	aoi_incorrect
0.14	2.0	843983	846017	ShowFixation	VGS	1	1	True	lime	600	[1350 1830  405  675]	[ 90 570 405 675]
2.174	0.2	846017	846253	BlankScreen	VGS	1	1	True	lime	600	[1350 1830  405  675]	[ 90 570 405 675]
2.41	1.0	846253	847293	ELCue	VGS	1	1	True	lime	600	[1350 1830  405  675]	[ 90 570 405 675]
3.955	2.0	847798	850338	ShowFixation	VGS	2	1	True	lime	40	[ 90 570 405 675]	[1350 1830  405  675]
6.495	0.2	850338	850574	BlankScreen	VGS	2	1	True	lime	40	[ 90 570 405 675]	[1350 1830  405  675]
6.731	1.0	850574	851614	ELCue	VGS	2	1	True	lime	40	[ 90 570 405 675]	[1350 1830  405  675]
8.171	6.0	852014	858659	ShowFixation	VGS	3	1	True	lime	600	[1350 1830  405  675]	[ 90 570 405 675]
14.816	0.2	858659	858898	BlankScreen	VGS	3	1	True	lime	600	[1350 1830  405  675]	[ 90 570 405 675]
15.055	1.0	858898	859944	ELCue	VGS	3	1	True	lime	600	[1350 1830  405  675]	[ 90 570 405 675]
16.518	2.0	860361	863001	ShowFixation	ANTI	4	1	True	red	600	[ 90 570 405 675]	[1350 1830  405  675]
19.158	0.2	863001	863236	BlankScreen	ANTI	4	1	True	red	600	[ 90 570 405 675]	[1350 1830  405  675]
19.393	1.0	863236	864277	ELCue	ANTI	4	1	True	red	600	[ 90 570 405 675]	[1350 1830  405  675]
20.838	6.0	864681	871322	ShowFixation	VGS	5	1	True	lime	40	[ 90 570 405 675]	[1350 1830  405  675]
27.479	0.2	871322	871561	BlankScreen	VGS	5	1	True	lime	40	[ 90 570 405 675]	[1350 1830  405  675]
27.718	1.0	871561	872602	ELCue	VGS	5	1	True	lime	40	[ 90 570 405 675]	[1350 1830  405  675]
29.162	6.0	873005	879647	ShowFixation	VGS	6	1	True	lime	180	[405 885 405 675]	[1035 1515  405  675]
35.804	0.2	879647	879886	BlankScreen	VGS	6	1	True	lime	180	[405 885 405 675]	[1035 1515  405  675]
36.043	1.0	879886	880926	ELCue	VGS	6	1	True	lime	180	[405 885 405 675]	[1035 1515  405  675]
37.481	6.0	881324	887955	ShowFixation	ANTI	7	1	True	red	40	[1350 1830  405  675]	[ 90 570 405 675]
44.112	0.2	887955	888194	BlankScreen	ANTI	7	1	True	red	40	[1350 1830  405  675]	[ 90 570 405 675]
44.351	1.0	888194	889235	ELCue	ANTI	7	1	True	red	40	[1350 1830  405  675]	[ 90 570 405 675]
45.8	2.0	889643	892280	ShowFixation	ANTI	8	1	True	red	180	[1035 1515  405  675]	[405 885 405 675]
48.437	0.2	892280	892515	BlankScreen	ANTI	8	1	True	red	180	[1035 1515  405  675]	[405 885 405 675]
48.672	1.0	892515	893556	ELCue	ANTI	8	1	True	red	180	[1035 1515  405  675]	[405 885 405 675]
50.115	2.0	893958	896601	ShowFixation	ANTI	9	1	True	red	460	[405 885 405 675]	[1035 1515  405  675]
52.758	0.2	896601	896836	BlankScreen	ANTI	9	1	True	red	460	[405 885 405 675]	[1035 1515  405  675]
52.993	1.0	896836	897874	ELCue	ANTI	9	1	True	red	460	[405 885 405 675]	[1035 1515  405  675]
54.437	6.0	898280	904921	ShowFixation	ANTI	10	1	True	red	180	[1035 1515  405  675]	[405 885 405 675]
61.078	0.2	904921	905161	BlankScreen	ANTI	10	1	True	red	180	[1035 1515  405  675]	[405 885 405 675]
61.318	1.0	905161	906202	ELCue	ANTI	10	1	True	red	180	[1035 1515  405  675]	[405 885 405 675]
62.729	6.0	906572	913246	ShowFixation	ANTI	11	1	True	red	460	[405 885 405 675]	[1035 1515  405  675]
69.403	0.2	913246	913486	BlankScreen	ANTI	11	1	True	red	460	[405 885 405 675]	[1035 1515  405  675]
69.643	1.0	913486	914526	ELCue	ANTI	11	1	True	red	460	[405 885 405 675]	[1035 1515  405  675]
71.086	2.0	914929	917571	ShowFixation	VGS	12	1	True	lime	180	[405 885 405 675]	[1035 1515  405  675]
73.728	0.2	917571	917807	BlankScreen	VGS	12	1	True	lime	180	[405 885 405 675]	[1035 1515  405  675]
73.964	1.0	917807	918848	ELCue	VGS	12	1	True	lime	180	[405 885 405 675]	[1035 1515  405  675]
75.402	2.0	919245	921892	ShowFixation	VGS	13	1	True	lime	460	[1035 1515  405  675]	[405 885 405 675]
78.049	0.2	921892	922127	BlankScreen	VGS	13	1	True	lime	460	[1035 1515  405  675]	[405 885 405 675]
78.284	1.0	922127	923168	ELCue	VGS	13	1	True	lime	460	[1035 1515  405  675]	[405 885 405 675]
79.728	6.0	923571	930213	ShowFixation	VGS	14	1	True	lime	460	[1035 1515  405  675]	[405 885 405 675]
86.37	0.2	930213	930452	BlankScreen	VGS	14	1	True	lime	460	[1035 1515  405  675]	[405 885 405 675]
86.61	1.0	930453	931493	ELCue	VGS	14	1	True	lime	460	[1035 1515  405  675]	[405 885 405 675]
88.053	6.0	931896	938521	ShowFixation	ANTI	15	1	True	red	600	[ 90 570 405 675]	[1350 1830  405  675]
94.679	0.2	938522	938761	BlankScreen	ANTI	15	1	True	red	600	[ 90 570 405 675]	[1350 1830  405  675]
94.919	1.0	938762	939802	ELCue	ANTI	15	1	True	red	600	[ 90 570 405 675]	[1350 1830  405  675]
96.362	2.0	940205	942847	ShowFixation	ANTI	16	1	True	red	40	[1350 1830  405  675]	[ 90 570 405 675]
99.004	0.2	942847	943083	BlankScreen	ANTI	16	1	True	red	40	[1350 1830  405  675]	[ 90 570 405 675]
99.24	1.0	943083	944122	ELCue	ANTI	16	1	True	red	40	[1350 1830  405  675]	[ 90 570 405 675]
166.001	2.0	1009844	1011882	ShowFixation	ANTI	17	2	False	red	40	[1350 1830  405  675]	[ 90 570 405 675]
168.039	0.2	1011882	1012117	BlankScreen	ANTI	17	2	False	red	40	[1350 1830  405  675]	[ 90 570 405 675]
168.274	1.0	1012117	1013117	ELCue	ANTI	17	2	False	red	40	[1350 1830  405  675]	[ 90 570 405 675]
169.795	6.0	1013638	1019669	ShowFixation	VGS	18	2	False	lime	40	[ 90 570 405 675]	[1350 1830  405  675]
175.826	0.2	1019669	1019908	BlankScreen	VGS	18	2	False	lime	40	[ 90 570 405 675]	[1350 1830  405  675]
176.065	1.0	1019908	1020908	ELCue	VGS	18	2	False	lime	40	[ 90 570 405 675]	[1350 1830  405  675]
177.433	6.0	1021276	1027310	ShowFixation	ANTI	19	2	False	red	600	[ 90 570 405 675]	[1350 1830  405  675]
183.467	0.2	1027310	1027549	BlankScreen	ANTI	19	2	False	red	600	[ 90 570 405 675]	[1350 1830  405  675]
183.706	1.0	1027549	1028549	ELCue	ANTI	19	2	False	red	600	[ 90 570 405 675]	[1350 1830  405  675]
185.116	6.0	1028959	1034984	ShowFixation	ANTI	20	2	False	red	460	[405 885 405 675]	[1035 1515  405  675]
191.141	0.2	1034984	1035223	BlankScreen	ANTI	20	2	False	red	460	[405 885 405 675]	[1035 1515  405  675]
191.38	1.0	1035223	1036223	ELCue	ANTI	20	2	False	red	460	[405 885 405 675]	[1035 1515  405  675]
192.791	6.0	1036634	1042675	ShowFixation	ANTI	21	2	False	red	180	[1035 1515  405  675]	[405 885 405 675]
198.832	0.2	1042675	1042914	BlankScreen	ANTI	21	2	False	red	180	[1035 1515  405  675]	[405 885 405 675]
199.071	1.0	1042914	1043914	ELCue	ANTI	21	2	False	red	180	[1035 1515  405  675]	[405 885 405 675]
200.483	6.0	1044326	1050366	ShowFixation	VGS	22	2	False	lime	460	[1035 1515  405  675]	[405 885 405 675]
206.523	0.2	1050366	1050605	BlankScreen	VGS	22	2	False	lime	460	[1035 1515  405  675]	[405 885 405 675]
206.762	1.0	1050605	1051605	ELCue	VGS	22	2	False	lime	460	[1035 1515  405  675]	[405 885 405 675]
208.171	2.0	1052014	1054040	ShowFixation	VGS	23	2	False	lime	460	[1035 1515  405  675]	[405 885 405 675]
210.197	0.2	1054040	1054276	BlankScreen	VGS	23	2	False	lime	460	[1035 1515  405  675]	[405 885 405 675]
210.433	1.0	1054276	1055276	ELCue	VGS	23	2	False	lime	460	[1035 1515  405  675]	[405 885 405 675]
211.842	2.0	1055685	1057711	ShowFixation	VGS	24	2	False	lime	180	[405 885 405 675]	[1035 1515  405  675]
213.868	0.2	1057711	1057946	BlankScreen	VGS	24	2	False	lime	180	[405 885 405 675]	[1035 1515  405  675]
214.103	1.0	1057946	1058946	ELCue	VGS	24	2	False	lime	180	[405 885 405 675]	[1035 1515  405  675]
215.491	6.0	1059334	1065364	ShowFixation	VGS	25	2	False	lime	180	[405 885 405 675]	[1035 1515  405  675]
221.521	0.2	1065364	1065603	BlankScreen	VGS	25	2	False	lime	180	[405 885 405 675]	[1035 1515  405  675]
221.76	1.0	1065603	1066603	ELCue	VGS	25	2	False	lime	180	[405 885 405 675]	[1035 1515  405  675]
223.168	6.0	1067011	1073038	ShowFixation	VGS	26	2	False	lime	600	[1350 1830  405  675]	[ 90 570 405 675]
229.195	0.2	1073038	1073279	BlankScreen	VGS	26	2	False	lime	600	[1350 1830  405  675]	[ 90 570 405 675]
229.436	1.0	1073279	1074279	ELCue	VGS	26	2	False	lime	600	[1350 1830  405  675]	[ 90 570 405 675]
230.847	6.0	1074690	1080729	ShowFixation	ANTI	27	2	False	red	600	[ 90 570 405 675]	[1350 1830  405  675]
236.886	0.2	1080729	1080970	BlankScreen	ANTI	27	2	False	red	600	[ 90 570 405 675]	[1350 1830  405  675]
237.127	1.0	1080970	1081970	ELCue	ANTI	27	2	False	red	600	[ 90 570 405 675]	[1350 1830  405  675]
238.534	2.0	1082377	1084404	ShowFixation	VGS	28	2	False	lime	600	[1350 1830  405  675]	[ 90 570 405 675]
240.562	0.2	1084405	1084639	BlankScreen	VGS	28	2	False	lime	600	[1350 1830  405  675]	[ 90 570 405 675]
240.797	1.0	1084640	1085640	ELCue	VGS	28	2	False	lime	600	[1350 1830  405  675]	[ 90 570 405 675]
242.205	2.0	1086048	1088075	ShowFixation	VGS	29	2	False	lime	40	[ 90 570 405 675]	[1350 1830  405  675]
244.232	0.2	1088075	1088310	BlankScreen	VGS	29	2	False	lime	40	[ 90 570 405 675]	[1350 1830  405  675]
244.467	1.0	1088310	1089310	ELCue	VGS	29	2	False	lime	40	[ 90 570 405 675]	[1350 1830  405  675]
245.874	2.0	1089717	1091744	ShowFixation	VGS	30	2	False	lime	40	[ 90 570 405 675]	[1350 1830  405  675]
247.901	0.2	1091744	1091979	BlankScreen	VGS	30	2	False	lime	40	[ 90 570 405 675]	[1350 1830  405  675]
248.137	1.0	1091980	1092980	ELCue	VGS	30	2	False	lime	40	[ 90 570 405 675]	[1350 1830  405  675]
249.543	2.0	1093386	1095415	ShowFixation	ANTI	31	2	False	red	180	[1035 1515  405  675]	[405 885 405 675]
251.572	0.2	1095415	1095650	BlankScreen	ANTI	31	2	False	red	180	[1035 1515  405  675]	[405 885 405 675]
251.808	1.0	1095651	1096651	ELCue	ANTI	31	2	False	red	180	[1035 1515  405  675]	[405 885 405 675]
253.221	2.0	1097064	1099102	ShowFixation	VGS	32	2	False	lime	180	[405 885 405 675]	[1035 1515  405  675]
255.259	0.2	1099102	1099338	BlankScreen	VGS	32	2	False	lime	180	[405 885 405 675]	[1035 1515  405  675]
255.495	1.0	1099338	1100338	ELCue	VGS	32	2	False	lime	180	[405 885 405 675]	[1035 1515  405  675]
256.905	6.0	1100748	1106773	ShowFixation	VGS	33	2	False	lime	40	[ 90 570 405 675]	[1350 1830  405  675]
262.93	0.2	1106773	1107012	BlankScreen	VGS	33	2	False	lime	40	[ 90 570 405 675]	[1350 1830  405  675]
263.169	1.0	1107012	1108012	ELCue	VGS	33	2	False	lime	40	[ 90 570 405 675]	[1350 1830  405  675]
264.575	6.0	1108418	1114447	ShowFixation	VGS	34	2	False	lime	600	[1350 1830  405  675]	[ 90 570 405 675]
270.604	0.2	1114447	1114686	BlankScreen	VGS	34	2	False	lime	600	[1350 1830  405  675]	[ 90 570 405 675]
270.843	1.0	1114686	1115686	ELCue	VGS	34	2	False	lime	600	[1350 1830  405  675]	[ 90 570 405 675]
272.253	2.0	1116096	1118121	ShowFixation	ANTI	35	2	False	red	600	[ 90 570 405 675]	[1350 1830  405  675]
274.278	0.2	1118121	1118357	BlankScreen	ANTI	35	2	False	red	600	[ 90 570 405 675]	[1350 1830  405  675]
274.514	1.0	1118357	1119357	ELCue	ANTI	35	2	False	red	600	[ 90 570 405 675]	[1350 1830  405  675]
275.918	2.0	1119761	1121791	ShowFixation	ANTI	36	2	False	red	460	[405 885 405 675]	[1035 1515  405  675]
277.948	0.2	1121791	1122027	BlankScreen	ANTI	36	2	False	red	460	[405 885 405 675]	[1035 1515  405  675]
278.184	1.0	1122027	1123027	ELCue	ANTI	36	2	False	red	460	[405 885 405 675]	[1035 1515  405  675]
279.59	6.0	1123433	1129462	ShowFixation	ANTI	37	2	False	red	40	[1350 1830  405  675]	[ 90 570 405 675]
285.619	0.2	1129462	1129701	BlankScreen	ANTI	37	2	False	red	40	[1350 1830  405  675]	[ 90 570 405 675]
285.858	1.0	1129701	1130701	ELCue	ANTI	37	2	False	red	40	[1350 1830  405  675]	[ 90 570 405 675]
287.265	6.0	1131108	1137136	ShowFixation	VGS	38	2	False	lime	460	[1035 1515  405  675]	[405 885 405 675]
293.293	0.2	1137136	1137375	BlankScreen	VGS	38	2	False	lime	460	[1035 1515  405  675]	[405 885 405 675]
293.532	1.0	1137375	1138375	ELCue	VGS	38	2	False	lime	460	[1035 1515  405  675]	[405 885 405 675]
294.939	2.0	1138782	1140810	ShowFixation	ANTI	39	2	False	red	180	[1035 1515  405  675]	[405 885 405 675]
296.967	0.2	1140810	1141046	BlankScreen	ANTI	39	2	False	red	180	[1035 1515  405  675]	[405 885 405 675]
297.203	1.0	1141046	1142046	ELCue	ANTI	39	2	False	red	180	[1035 1515  405  675]	[405 885 405 675]
298.59	6.0	1142433	1148464	ShowFixation	ANTI	40	2	False	red	180	[1035 1515  405  675]	[405 885 405 675]
304.621	0.2	1148464	1148703	BlankScreen	ANTI	40	2	False	red	180	[1035 1515  405  675]	[405 885 405 675]
304.86	1.0	1148703	1149703	ELCue	ANTI	40	2	False	red	180	[1035 1515  405  675]	[405 885 405 675]
306.248	6.0	1150091	1156121	ShowFixation	VGS	41	2	False	lime	180	[405 885 405 675]	[1035 1515  405  675]
312.278	0.2	1156121	1156361	BlankScreen	VGS	41	2	False	lime	180	[405 885 405 675]	[1035 1515  405  675]
312.518	1.0	1156361	1157361	ELCue	VGS	41	2	False	lime	180	[405 885 405 675]	[1035 1515  405  675]
313.921	2.0	1157764	1159796	ShowFixation	ANTI	42	2	False	red	460	[405 885 405 675]	[1035 1515  405  675]
315.953	0.2	1159796	1160031	BlankScreen	ANTI	42	2	False	red	460	[405 885 405 675]	[1035 1515  405  675]
316.188	1.0	1160031	1161031	ELCue	ANTI	42	2	False	red	460	[405 885 405 675]	[1035 1515  405  675]
317.6	2.0	1161443	1163483	ShowFixation	ANTI	43	2	False	red	40	[1350 1830  405  675]	[ 90 570 405 675]
319.64	0.2	1163483	1163718	BlankScreen	ANTI	43	2	False	red	40	[1350 1830  405  675]	[ 90 570 405 675]
319.875	1.0	1163718	1164718	ELCue	ANTI	43	2	False	red	40	[1350 1830  405  675]	[ 90 570 405 675]
321.281	2.0	1165124	1167153	ShowFixation	ANTI	44	2	False	red	600	[ 90 570 405 675]	[1350 1830  405  675]
323.31	0.2	1167153	1167388	BlankScreen	ANTI	44	2	False	red	600	[ 90 570 405 675]	[1350 1830  405  675]
323.545	1.0	1167388	1168388	ELCue	ANTI	44	2	False	red	600	[ 90 570 405 675]	[1350 1830  405  675]
324.955	2.0	1168798	1170823	ShowFixation	VGS	45	2	False	lime	460	[1035 1515  405  675]	[405 885 405 675]
326.98	0.2	1170823	1171059	BlankScreen	VGS	45	2	False	lime	460	[1035 1515  405  675]	[405 885 405 675]
327.216	1.0	1171059	1172059	ELCue	VGS	45	2	False	lime	460	[1035 1515  405  675]	[405 885 405 675]
328.608	6.0	1172451	1178477	ShowFixation	ANTI	46	2	False	red	460	[405 885 405 675]	[1035 1515  405  675]
334.634	0.2	1178477	1178716	BlankScreen	ANTI	46	2	False	red	460	[405 885 405 675]	[1035 1515  405  675]
334.873	1.0	1178716	1179716	ELCue	ANTI	46	2	False	red	460	[405 885 405 675]	[1035 1515  405  675]
336.285	6.0	1180128	1186168	ShowFixation	ANTI	47	2	False	red	40	[1350 1830  405  675]	[ 90 570 405 675]
342.325	0.2	1186168	1186407	BlankScreen	ANTI	47	2	False	red	40	[1350 1830  405  675]	[ 90 570 405 675]
342.564	1.0	1186407	1187407	ELCue	ANTI	47	2	False	red	40	[1350 1830  405  675]	[ 90 570 405 675]
343.971	2.0	1187814	1189842	ShowFixation	VGS	48	2	False	lime	600	[1350 1830  405  675]	[ 90 570 405 675]
345.999	0.2	1189842	1190077	BlankScreen	VGS	48	2	False	lime	600	[1350 1830  405  675]	[ 90 570 405 675]
346.234	1.0	1190077	1191077	ELCue	VGS	48	2	False	lime	600	[1350 1830  405  675]	[ 90 570 405 675]
380.031	2.0	1223874	1225911	ShowFixation	ANTI	49	3	False	red	600	[ 90 570 405 675]	[1350 1830  405  675]
382.068	0.2	1225911	1226146	BlankScreen	ANTI	49	3	False	red	600	[ 90 570 405 675]	[1350 1830  405  675]
382.303	1.0	1226146	1227146	ELCue	ANTI	49	3	False	red	600	[ 90 570 405 675]	[1350 1830  405  675]
383.815	2.0	1227658	1229698	ShowFixation	VGS	50	3	False	lime	180	[405 885 405 675]	[1035 1515  405  675]
385.855	0.2	1229698	1229933	BlankScreen	VGS	50	3	False	lime	180	[405 885 405 675]	[1035 1515  405  675]
386.09	1.0	1229933	1230933	ELCue	VGS	50	3	False	lime	180	[405 885 405 675]	[1035 1515  405  675]
387.499	6.0	1231342	1237368	ShowFixation	VGS	51	3	False	lime	40	[ 90 570 405 675]	[1350 1830  405  675]
393.525	0.2	1237368	1237608	BlankScreen	VGS	51	3	False	lime	40	[ 90 570 405 675]	[1350 1830  405  675]
393.765	1.0	1237608	1238608	ELCue	VGS	51	3	False	lime	40	[ 90 570 405 675]	[1350 1830  405  675]
395.173	2.0	1239016	1241042	ShowFixation	VGS	52	3	False	lime	460	[1035 1515  405  675]	[405 885 405 675]
397.2	0.2	1241043	1241278	BlankScreen	VGS	52	3	False	lime	460	[1035 1515  405  675]	[405 885 405 675]
397.436	1.0	1241279	1242279	ELCue	VGS	52	3	False	lime	460	[1035 1515  405  675]	[405 885 405 675]
398.838	6.0	1242681	1248714	ShowFixation	ANTI	53	3	False	red	600	[ 90 570 405 675]	[1350 1830  405  675]
404.871	0.2	1248714	1248953	BlankScreen	ANTI	53	3	False	red	600	[ 90 570 405 675]	[1350 1830  405  675]
405.11	1.0	1248953	1249953	ELCue	ANTI	53	3	False	red	600	[ 90 570 405 675]	[1350 1830  405  675]
406.519	2.0	1250362	1252388	ShowFixation	VGS	54	3	False	lime	40	[ 90 570 405 675]	[1350 1830  405  675]
408.545	0.2	1252388	1252623	BlankScreen	VGS	54	3	False	lime	40	[ 90 570 405 675]	[1350 1830  405  675]
408.78	1.0	1252623	1253623	ELCue	VGS	54	3	False	lime	40	[ 90 570 405 675]	[1350 1830  405  675]
410.172	6.0	1254015	1260042	ShowFixation	VGS	55	3	False	lime	600	[1350 1830  405  675]	[ 90 570 405 675]
416.199	0.2	1260042	1260281	BlankScreen	VGS	55	3	False	lime	600	[1350 1830  405  675]	[ 90 570 405 675]
416.438	1.0	1260281	1261281	ELCue	VGS	55	3	False	lime	600	[1350 1830  405  675]	[ 90 570 405 675]
417.851	2.0	1261694	1263733	ShowFixation	VGS	56	3	False	lime	180	[405 885 405 675]	[1035 1515  405  675]
419.89	0.2	1263733	1263968	BlankScreen	VGS	56	3	False	lime	180	[405 885 405 675]	[1035 1515  405  675]
420.125	1.0	1263968	1264968	ELCue	VGS	56	3	False	lime	180	[405 885 405 675]	[1035 1515  405  675]
421.526	2.0	1265369	1267403	ShowFixation	ANTI	57	3	False	red	180	[1035 1515  405  675]	[405 885 405 675]
423.56	0.2	1267403	1267638	BlankScreen	ANTI	57	3	False	red	180	[1035 1515  405  675]	[405 885 405 675]
423.795	1.0	1267638	1268638	ELCue	ANTI	57	3	False	red	180	[1035 1515  405  675]	[405 885 405 675]
425.204	6.0	1269047	1275073	ShowFixation	VGS	58	3	False	lime	40	[ 90 570 405 675]	[1350 1830  405  675]
431.23	0.2	1275073	1275312	BlankScreen	VGS	58	3	False	lime	40	[ 90 570 405 675]	[1350 1830  405  675]
431.469	1.0	1275312	1276312	ELCue	VGS	58	3	False	lime	40	[ 90 570 405 675]	[1350 1830  405  675]
432.88	6.0	1276723	1282764	ShowFixation	ANTI	59	3	False	red	460	[405 885 405 675]	[1035 1515  405  675]
438.921	0.2	1282764	1283003	BlankScreen	ANTI	59	3	False	red	460	[405 885 405 675]	[1035 1515  405  675]
439.16	1.0	1283003	1284003	ELCue	ANTI	59	3	False	red	460	[405 885 405 675]	[1035 1515  405  675]
440.569	6.0	1284412	1290438	ShowFixation	ANTI	60	3	False	red	460	[405 885 405 675]	[1035 1515  405  675]
446.595	0.2	1290438	1290678	BlankScreen	ANTI	60	3	False	red	460	[405 885 405 675]	[1035 1515  405  675]
446.835	1.0	1290678	1291678	ELCue	ANTI	60	3	False	red	460	[405 885 405 675]	[1035 1515  405  675]
448.241	2.0	1292084	1294113	ShowFixation	ANTI	61	3	False	red	460	[405 885 405 675]	[1035 1515  405  675]
450.27	0.2	1294113	1294348	BlankScreen	ANTI	61	3	False	red	460	[405 885 405 675]	[1035 1515  405  675]
450.505	1.0	1294348	1295348	ELCue	ANTI	61	3	False	red	460	[405 885 405 675]	[1035 1515  405  675]
451.911	6.0	1295754	1301783	ShowFixation	VGS	62	3	False	lime	180	[405 885 405 675]	[1035 1515  405  675]
457.94	0.2	1301783	1302022	BlankScreen	VGS	62	3	False	lime	180	[405 885 405 675]	[1035 1515  405  675]
458.179	1.0	1302022	1303022	ELCue	VGS	62	3	False	lime	180	[405 885 405 675]	[1035 1515  405  675]
459.584	6.0	1303427	1309457	ShowFixation	ANTI	63	3	False	red	180	[1035 1515  405  675]	[405 885 405 675]
465.614	0.2	1309457	1309696	BlankScreen	ANTI	63	3	False	red	180	[1035 1515  405  675]	[405 885 405 675]
465.853	1.0	1309696	1310696	ELCue	ANTI	63	3	False	red	180	[1035 1515  405  675]	[405 885 405 675]
467.261	2.0	1311104	1313131	ShowFixation	VGS	64	3	False	lime	600	[1350 1830  405  675]	[ 90 570 405 675]
469.288	0.2	1313131	1313367	BlankScreen	VGS	64	3	False	lime	600	[1350 1830  405  675]	[ 90 570 405 675]
469.524	1.0	1313367	1314367	ELCue	VGS	64	3	False	lime	600	[1350 1830  405  675]	[ 90 570 405 675]
470.935	2.0	1314778	1316818	ShowFixation	VGS	65	3	False	lime	600	[1350 1830  405  675]	[ 90 570 405 675]
472.975	0.2	1316818	1317054	BlankScreen	VGS	65	3	False	lime	600	[1350 1830  405  675]	[ 90 570 405 675]
473.211	1.0	1317054	1318054	ELCue	VGS	65	3	False	lime	600	[1350 1830  405  675]	[ 90 570 405 675]
474.618	6.0	1318461	1324489	ShowFixation	ANTI	66	3	False	red	180	[1035 1515  405  675]	[405 885 405 675]
480.646	0.2	1324489	1324728	BlankScreen	ANTI	66	3	False	red	180	[1035 1515  405  675]	[405 885 405 675]
480.885	1.0	1324728	1325728	ELCue	ANTI	66	3	False	red	180	[1035 1515  405  675]	[405 885 405 675]
482.29	2.0	1326133	1328163	ShowFixation	ANTI	67	3	False	red	40	[1350 1830  405  675]	[ 90 570 405 675]
484.32	0.2	1328163	1328398	BlankScreen	ANTI	67	3	False	red	40	[1350 1830  405  675]	[ 90 570 405 675]
484.555	1.0	1328398	1329398	ELCue	ANTI	67	3	False	red	40	[1350 1830  405  675]	[ 90 570 405 675]
485.947	6.0	1329790	1335816	ShowFixation	ANTI	68	3	False	red	600	[ 90 570 405 675]	[1350 1830  405  675]
491.973	0.2	1335816	1336056	BlankScreen	ANTI	68	3	False	red	600	[ 90 570 405 675]	[1350 1830  405  675]
492.213	1.0	1336056	1337056	ELCue	ANTI	68	3	False	red	600	[ 90 570 405 675]	[1350 1830  405  675]
493.623	6.0	1337466	1343507	ShowFixation	VGS	69	3	False	lime	460	[1035 1515  405  675]	[405 885 405 675]
499.664	0.2	1343507	1343747	BlankScreen	VGS	69	3	False	lime	460	[1035 1515  405  675]	[405 885 405 675]
499.904	1.0	1343747	1344747	ELCue	VGS	69	3	False	lime	460	[1035 1515  405  675]	[405 885 405 675]
501.313	2.0	1345156	1347182	ShowFixation	VGS	70	3	False	lime	460	[1035 1515  405  675]	[405 885 405 675]
503.339	0.2	1347182	1347417	BlankScreen	VGS	70	3	False	lime	460	[1035 1515  405  675]	[405 885 405 675]
503.574	1.0	1347417	1348417	ELCue	VGS	70	3	False	lime	460	[1035 1515  405  675]	[405 885 405 675]
504.981	6.0	1348824	1354852	ShowFixation	VGS	71	3	False	lime	180	[405 885 405 675]	[1035 1515  405  675]
511.009	0.2	1354852	1355091	BlankScreen	VGS	71	3	False	lime	180	[405 885 405 675]	[1035 1515  405  675]
511.248	1.0	1355091	1356091	ELCue	VGS	71	3	False	lime	180	[405 885 405 675]	[1035 1515  405  675]
512.653	2.0	1356496	1358526	ShowFixation	ANTI	72	3	False	red	600	[ 90 570 405 675]	[1350 1830  405  675]
514.683	0.2	1358526	1358761	BlankScreen	ANTI	72	3	False	red	600	[ 90 570 405 675]	[1350 1830  405  675]
514.918	1.0	1358761	1359761	ELCue	ANTI	72	3	False	red	600	[ 90 570 405 675]	[1350 1830  405  675]
516.325	6.0	1360168	1366196	ShowFixation	ANTI	73	3	False	red	40	[1350 1830  405  675]	[ 90 570 405 675]
522.353	0.2	1366196	1366436	BlankScreen	ANTI	73	3	False	red	40	[1350 1830  405  675]	[ 90 570 405 675]
522.593	1.0	1366436	1367436	ELCue	ANTI	73	3	False	red	40	[1350 1830  405  675]	[ 90 570 405 675]
524.0	6.0	1367843	1373871	ShowFixation	VGS	74	3	False	lime	460	[1035 1515  405  675]	[405 885 405 675]
530.028	0.2	1373871	1374110	BlankScreen	VGS	74	3	False	lime	460	[1035 1515  405  675]	[405 885 405 675]
530.267	1.0	1374110	1375110	ELCue	VGS	74	3	False	lime	460	[1035 1515  405  675]	[405 885 405 675]
531.674	6.0	1375517	1381545	ShowFixation	VGS	75	3	False	lime	600	[1350 1830  405  675]	[ 90 570 405 675]
537.702	0.2	1381545	1381784	BlankScreen	VGS	75	3	False	lime	600	[1350 1830  405  675]	[ 90 570 405 675]
537.941	1.0	1381784	1382784	ELCue	VGS	75	3	False	lime	600	[1350 1830  405  675]	[ 90 570 405 675]
539.351	2.0	1383194	1385219	ShowFixation	VGS	76	3	False	lime	40	[ 90 570 405 675]	[1350 1830  405  675]
541.376	0.2	1385219	1385454	BlankScreen	VGS	76	3	False	lime	40	[ 90 570 405 675]	[1350 1830  405  675]
541.611	1.0	1385454	1386454	ELCue	VGS	76	3	False	lime	40	[ 90 570 405 675]	[1350 1830  405  675]
543.003	2.0	1386846	1388873	ShowFixation	ANTI	77	3	False	red	180	[1035 1515  405  675]	[405 885 405 675]
545.03	0.2	1388873	1389108	BlankScreen	ANTI	77	3	False	red	180	[1035 1515  405  675]	[405 885 405 675]
545.265	1.0	1389108	1390108	ELCue	ANTI	77	3	False	red	180	[1035 1515  405  675]	[405 885 405 675]
546.674	6.0	1390517	1396544	ShowFixation	ANTI	78	3	False	red	40	[1350 1830  405  675]	[ 90 570 405 675]
552.701	0.2	1396544	1396782	BlankScreen	ANTI	78	3	False	red	40	[1350 1830  405  675]	[ 90 570 405 675]
552.939	1.0	1396782	1397782	ELCue	ANTI	78	3	False	red	40	[1350 1830  405  675]	[ 90 570 405 675]
554.329	2.0	1398172	1400201	ShowFixation	ANTI	79	3	False	red	40	[1350 1830  405  675]	[ 90 570 405 675]
556.359	0.2	1400202	1400437	BlankScreen	ANTI	79	3	False	red	40	[1350 1830  405  675]	[ 90 570 405 675]
556.594	1.0	1400437	1401437	ELCue	ANTI	79	3	False	red	40	[1350 1830  405  675]	[ 90 570 405 675]
557.999	2.0	1401842	1403872	ShowFixation	ANTI	80	3	False	red	460	[405 885 405 675]	[1035 1515  405  675]
560.029	0.2	1403872	1404107	BlankScreen	ANTI	80	3	False	red	460	[405 885 405 675]	[1035 1515  405  675]
560.264	1.0	1404107	1405107	ELCue	ANTI	80	3	False	red	460	[405 885 405 675]	[1035 1515  405  675]
593.992	6.0	1437835	1443874	ShowFixation	ANTI	81	4	False	red	600	[ 90 570 405 675]	[1350 1830  405  675]
600.031	0.2	1443874	1444113	BlankScreen	ANTI	81	4	False	red	600	[ 90 570 405 675]	[1350 1830  405  675]
600.27	1.0	1444113	1445113	ELCue	ANTI	81	4	False	red	600	[ 90 570 405 675]	[1350 1830  405  675]
601.676	6.0	1445519	1451548	ShowFixation	ANTI	82	4	False	red	600	[ 90 570 405 675]	[1350 1830  405  675]
607.705	0.2	1451548	1451788	BlankScreen	ANTI	82	4	False	red	600	[ 90 570 405 675]	[1350 1830  405  675]
607.945	1.0	1451788	1452788	ELCue	ANTI	82	4	False	red	600	[ 90 570 405 675]	[1350 1830  405  675]
609.382	2.0	1453225	1455256	ShowFixation	VGS	83	4	False	lime	40	[ 90 570 405 675]	[1350 1830  405  675]
611.413	0.2	1455256	1455491	BlankScreen	VGS	83	4	False	lime	40	[ 90 570 405 675]	[1350 1830  405  675]
611.648	1.0	1455491	1456491	ELCue	VGS	83	4	False	lime	40	[ 90 570 405 675]	[1350 1830  405  675]
613.034	6.0	1456877	1462910	ShowFixation	VGS	84	4	False	lime	180	[405 885 405 675]	[1035 1515  405  675]
619.067	0.2	1462910	1463149	BlankScreen	VGS	84	4	False	lime	180	[405 885 405 675]	[1035 1515  405  675]
619.306	1.0	1463149	1464149	ELCue	VGS	84	4	False	lime	180	[405 885 405 675]	[1035 1515  405  675]
620.712	2.0	1464555	1466584	ShowFixation	ANTI	85	4	False	red	460	[405 885 405 675]	[1035 1515  405  675]
622.741	0.2	1466584	1466819	BlankScreen	ANTI	85	4	False	red	460	[405 885 405 675]	[1035 1515  405  675]
622.976	1.0	1466819	1467819	ELCue	ANTI	85	4	False	red	460	[405 885 405 675]	[1035 1515  405  675]
624.366	6.0	1468209	1474237	ShowFixation	VGS	86	4	False	lime	460	[1035 1515  405  675]	[405 885 405 675]
630.394	0.2	1474237	1474477	BlankScreen	VGS	86	4	False	lime	460	[1035 1515  405  675]	[405 885 405 675]
630.634	1.0	1474477	1475477	ELCue	VGS	86	4	False	lime	460	[1035 1515  405  675]	[405 885 405 675]
632.042	6.0	1475885	1481912	ShowFixation	VGS	87	4	False	lime	460	[1035 1515  405  675]	[405 885 405 675]
638.069	0.2	1481912	1482151	BlankScreen	VGS	87	4	False	lime	460	[1035 1515  405  675]	[405 885 405 675]
638.308	1.0	1482151	1483151	ELCue	VGS	87	4	False	lime	460	[1035 1515  405  675]	[405 885 405 675]
639.707	2.0	1483550	1485586	ShowFixation	ANTI	88	4	False	red	600	[ 90 570 405 675]	[1350 1830  405  675]
641.743	0.2	1485586	1485821	BlankScreen	ANTI	88	4	False	red	600	[ 90 570 405 675]	[1350 1830  405  675]
641.978	1.0	1485821	1486821	ELCue	ANTI	88	4	False	red	600	[ 90 570 405 675]	[1350 1830  405  675]
643.386	2.0	1487229	1489256	ShowFixation	VGS	89	4	False	lime	600	[1350 1830  405  675]	[ 90 570 405 675]
645.413	0.2	1489256	1489491	BlankScreen	VGS	89	4	False	lime	600	[1350 1830  405  675]	[ 90 570 405 675]
645.648	1.0	1489491	1490491	ELCue	VGS	89	4	False	lime	600	[1350 1830  405  675]	[ 90 570 405 675]
647.058	2.0	1490901	1492926	ShowFixation	ANTI	90	4	False	red	40	[1350 1830  405  675]	[ 90 570 405 675]
649.083	0.2	1492926	1493162	BlankScreen	ANTI	90	4	False	red	40	[1350 1830  405  675]	[ 90 570 405 675]
649.319	1.0	1493162	1494162	ELCue	ANTI	90	4	False	red	40	[1350 1830  405  675]	[ 90 570 405 675]
650.723	6.0	1494566	1500597	ShowFixation	VGS	91	4	False	lime	40	[ 90 570 405 675]	[1350 1830  405  675]
656.754	0.2	1500597	1500836	BlankScreen	VGS	91	4	False	lime	40	[ 90 570 405 675]	[1350 1830  405  675]
656.993	1.0	1500836	1501836	ELCue	VGS	91	4	False	lime	40	[ 90 570 405 675]	[1350 1830  405  675]
658.403	6.0	1502246	1508271	ShowFixation	ANTI	92	4	False	red	40	[1350 1830  405  675]	[ 90 570 405 675]
664.428	0.2	1508271	1508510	BlankScreen	ANTI	92	4	False	red	40	[1350 1830  405  675]	[ 90 570 405 675]
664.667	1.0	1508510	1509510	ELCue	ANTI	92	4	False	red	40	[1350 1830  405  675]	[ 90 570 405 675]
666.077	6.0	1509920	1515945	ShowFixation	VGS	93	4	False	lime	180	[405 885 405 675]	[1035 1515  405  675]
672.102	0.2	1515945	1516184	BlankScreen	VGS	93	4	False	lime	180	[405 885 405 675]	[1035 1515  405  675]
672.341	1.0	1516184	1517184	ELCue	VGS	93	4	False	lime	180	[405 885 405 675]	[1035 1515  405  675]
673.734	2.0	1517577	1519603	ShowFixation	VGS	94	4	False	lime	180	[405 885 405 675]	[1035 1515  405  675]
675.76	0.2	1519603	1519838	BlankScreen	VGS	94	4	False	lime	180	[405 885 405 675]	[1035 1515  405  675]
675.995	1.0	1519838	1520838	ELCue	VGS	94	4	False	lime	180	[405 885 405 675]	[1035 1515  405  675]
677.405	2.0	1521248	1523273	ShowFixation	ANTI	95	4	False	red	180	[1035 1515  405  675]	[405 885 405 675]
679.43	0.2	1523273	1523508	BlankScreen	ANTI	95	4	False	red	180	[1035 1515  405  675]	[405 885 405 675]
679.665	1.0	1523508	1524508	ELCue	ANTI	95	4	False	red	180	[1035 1515  405  675]	[405 885 405 675]
681.076	6.0	1524919	1530960	ShowFixation	ANTI	96	4	False	red	180	[1035 1515  405  675]	[405 885 405 675]
687.118	0.2	1530961	1531199	BlankScreen	ANTI	96	4	False	red	180	[1035 1515  405  675]	[405 885 405 675]
687.356	1.0	1531199	1532199	ELCue	ANTI	96	4	False	red	180	[1035 1515  405  675]	[405 885 405 675]
688.766	2.0	1532609	1534634	ShowFixation	VGS	97	4	False	lime	600	[1350 1830  405  675]	[ 90 570 405 675]
690.791	0.2	1534634	1534870	BlankScreen	VGS	97	4	False	lime	600	[1350 1830  405  675]	[ 90 570 405 675]
691.027	1.0	1534870	1535870	ELCue	VGS	97	4	False	lime	600	[1350 1830  405  675]	[ 90 570 405 675]
692.433	2.0	1536276	1538305	ShowFixation	VGS	98	4	False	lime	460	[1035 1515  405  675]	[405 885 405 675]
694.462	0.2	1538305	1538540	BlankScreen	VGS	98	4	False	lime	460	[1035 1515  405  675]	[405 885 405 675]
694.697	1.0	1538540	1539540	ELCue	VGS	98	4	False	lime	460	[1035 1515  405  675]	[405 885 405 675]
696.1	6.0	1539943	1545975	ShowFixation	VGS	99	4	False	lime	600	[1350 1830  405  675]	[ 90 570 405 675]
702.133	0.2	1545976	1546214	BlankScreen	VGS	99	4	False	lime	600	[1350 1830  405  675]	[ 90 570 405 675]
702.371	1.0	1546214	1547214	ELCue	VGS	99	4	False	lime	600	[1350 1830  405  675]	[ 90 570 405 675]
703.777	2.0	1547620	1549649	ShowFixation	ANTI	100	4	False	red	180	[1035 1515  405  675]	[405 885 405 675]
705.806	0.2	1549649	1549884	BlankScreen	ANTI	100	4	False	red	180	[1035 1515  405  675]	[405 885 405 675]
706.041	1.0	1549884	1550884	ELCue	ANTI	100	4	False	red	180	[1035 1515  405  675]	[405 885 405 675]
707.453	6.0	1551296	1557336	ShowFixation	VGS	101	4	False	lime	600	[1350 1830  405  675]	[ 90 570 405 675]
713.493	0.2	1557336	1557576	BlankScreen	VGS	101	4	False	lime	600	[1350 1830  405  675]	[ 90 570 405 675]
713.733	1.0	1557576	1558576	ELCue	VGS	101	4	False	lime	600	[1350 1830  405  675]	[ 90 570 405 675]
715.144	6.0	1558987	1565027	ShowFixation	ANTI	102	4	False	red	460	[405 885 405 675]	[1035 1515  405  675]
721.184	0.2	1565027	1565266	BlankScreen	ANTI	102	4	False	red	460	[405 885 405 675]	[1035 1515  405  675]
721.423	1.0	1565266	1566266	ELCue	ANTI	102	4	False	red	460	[405 885 405 675]	[1035 1515  405  675]
722.837	6.0	1566680	1572719	ShowFixation	ANTI	103	4	False	red	40	[1350 1830  405  675]	[ 90 570 405 675]
728.876	0.2	1572719	1572958	BlankScreen	ANTI	103	4	False	red	40	[1350 1830  405  675]	[ 90 570 405 675]
729.115	1.0	1572958	1573958	ELCue	ANTI	103	4	False	red	40	[1350 1830  405  675]	[ 90 570 405 675]
730.526	2.0	1574369	1576410	ShowFixation	ANTI	104	4	False	red	40	[1350 1830  405  675]	[ 90 570 405 675]
732.567	0.2	1576410	1576645	BlankScreen	ANTI	104	4	False	red	40	[1350 1830  405  675]	[ 90 570 405 675]
732.802	1.0	1576645	1577645	ELCue	ANTI	104	4	False	red	40	[1350 1830  405  675]	[ 90 570 405 675]
734.211	6.0	1578054	1584080	ShowFixation	ANTI	105	4	False	red	460	[405 885 405 675]	[1035 1515  405  675]
740.237	0.2	1584080	1584319	BlankScreen	ANTI	105	4	False	red	460	[405 885 405 675]	[1035 1515  405  675]
740.476	1.0	1584319	1585319	ELCue	ANTI	105	4	False	red	460	[405 885 405 675]	[1035 1515  405  675]
741.889	2.0	1585732	1587771	ShowFixation	VGS	106	4	False	lime	460	[1035 1515  405  675]	[405 885 405 675]
743.928	0.2	1587771	1588006	BlankScreen	VGS	106	4	False	lime	460	[1035 1515  405  675]	[405 885 405 675]
744.163	1.0	1588006	1589006	ELCue	VGS	106	4	False	lime	460	[1035 1515  405  675]	[405 885 405 675]
745.537	6.0	1589380	1595408	ShowFixation	VGS	107	4	False	lime	40	[ 90 570 405 675]	[1350 1830  405  675]
751.565	0.2	1595408	1595647	BlankScreen	VGS	107	4	False	lime	40	[ 90 570 405 675]	[1350 1830  405  675]
751.804	1.0	1595647	1596647	ELCue	VGS	107	4	False	lime	40	[ 90 570 405 675]	[1350 1830  405  675]
753.216	2.0	1597059	1599099	ShowFixation	VGS	108	4	False	lime	180	[405 885 405 675]	[1035 1515  405  675]
755.256	0.2	1599099	1599334	BlankScreen	VGS	108	4	False	lime	180	[405 885 405 675]	[1035 1515  405  675]
755.491	1.0	1599334	1600334	ELCue	VGS	108	4	False	lime	180	[405 885 405 675]	[1035 1515  405  675]
756.904	6.0	1600747	1606786	ShowFixation	ANTI	109	4	False	red	180	[1035 1515  405  675]	[405 885 405 675]
762.943	0.2	1606786	1607025	BlankScreen	ANTI	109	4	False	red	180	[1035 1515  405  675]	[405 885 405 675]
763.182	1.0	1607025	1608025	ELCue	ANTI	109	4	False	red	180	[1035 1515  405  675]	[405 885 405 675]
764.586	2.0	1608429	1610460	ShowFixation	ANTI	110	4	False	red	460	[405 885 405 675]	[1035 1515  405  675]
766.617	0.2	1610460	1610695	BlankScreen	ANTI	110	4	False	red	460	[405 885 405 675]	[1035 1515  405  675]
766.852	1.0	1610695	1611695	ELCue	ANTI	110	4	False	red	460	[405 885 405 675]	[1035 1515  405  675]
768.26	2.0	1612103	1614130	ShowFixation	ANTI	111	4	False	red	600	[ 90 570 405 675]	[1350 1830  405  675]
770.287	0.2	1614130	1614366	BlankScreen	ANTI	111	4	False	red	600	[ 90 570 405 675]	[1350 1830  405  675]
770.523	1.0	1614366	1615366	ELCue	ANTI	111	4	False	red	600	[ 90 570 405 675]	[1350 1830  405  675]
771.933	2.0	1615776	1617817	ShowFixation	VGS	112	4	False	lime	40	[ 90 570 405 675]	[1350 1830  405  675]
773.974	0.2	1617817	1618053	BlankScreen	VGS	112	4	False	lime	40	[ 90 570 405 675]	[1350 1830  405  675]
774.21	1.0	1618053	1619053	ELCue	VGS	112	4	False	lime	40	[ 90 570 405 675]	[1350 1830  405  675]
