onset	duration	startTime	stopTime	eventIdentifier	trial_type	trial_number	block_number	is_practice	fixation_color	cue_side	aoi_correct	aoi_incorrect
0.146	2.0	522138	524178	ShowFixation	ANTI	1	1	True	red	460	[405 885 405 675]	[1035 1515  405  675]
2.186	0.2	524178	524413	BlankScreen	ANTI	1	1	True	red	460	[405 885 405 675]	[1035 1515  405  675]
2.421	1.0	524413	525453	ELCue	ANTI	1	1	True	red	460	[405 885 405 675]	[1035 1515  405  675]
3.867	2.0	525859	528499	ShowFixation	ANTI	2	1	True	red	600	[ 90 570 405 675]	[1350 1830  405  675]
6.507	0.2	528499	528734	BlankScreen	ANTI	2	1	True	red	600	[ 90 570 405 675]	[1350 1830  405  675]
6.742	1.0	528734	529774	ELCue	ANTI	2	1	True	red	600	[ 90 570 405 675]	[1350 1830  405  675]
8.187	2.0	530179	532803	ShowFixation	VGS	3	1	True	lime	180	[405 885 405 675]	[1035 1515  405  675]
10.811	0.2	532803	533022	BlankScreen	VGS	3	1	True	lime	180	[405 885 405 675]	[1035 1515  405  675]
11.03	1.0	533022	534045	ELCue	VGS	3	1	True	lime	180	[405 885 405 675]	[1035 1515  405  675]
12.461	6.0	534453	541091	ShowFixation	ANTI	4	1	True	red	40	[1350 1830  405  675]	[ 90 570 405 675]
19.099	0.2	541091	541330	BlankScreen	ANTI	4	1	True	red	40	[1350 1830  405  675]	[ 90 570 405 675]
19.338	1.0	541330	542370	ELCue	ANTI	4	1	True	red	40	[1350 1830  405  675]	[ 90 570 405 675]
20.784	6.0	542776	549415	ShowFixation	ANTI	5	1	True	red	460	[405 885 405 675]	[1035 1515  405  675]
27.423	0.2	549415	549655	BlankScreen	ANTI	5	1	True	red	460	[405 885 405 675]	[1035 1515  405  675]
27.663	1.0	549655	550695	ELCue	ANTI	5	1	True	red	460	[405 885 405 675]	[1035 1515  405  675]
29.108	6.0	551100	557724	ShowFixation	VGS	6	1	True	lime	40	[ 90 570 405 675]	[1350 1830  405  675]
35.732	0.2	557724	557963	BlankScreen	VGS	6	1	True	lime	40	[ 90 570 405 675]	[1350 1830  405  675]
35.971	1.0	557963	559004	ELCue	VGS	6	1	True	lime	40	[ 90 570 405 675]	[1350 1830  405  675]
37.416	2.0	559408	562048	ShowFixation	VGS	7	1	True	lime	460	[1035 1515  405  675]	[405 885 405 675]
40.056	0.2	562048	562284	BlankScreen	VGS	7	1	True	lime	460	[1035 1515  405  675]	[405 885 405 675]
40.292	1.0	562284	563325	ELCue	VGS	7	1	True	lime	460	[1035 1515  405  675]	[405 885 405 675]
41.732	2.0	563724	566369	ShowFixation	ANTI	8	1	True	red	40	[1350 1830  405  675]	[ 90 570 405 675]
44.377	0.2	566369	566605	BlankScreen	ANTI	8	1	True	red	40	[1350 1830  405  675]	[ 90 570 405 675]
44.613	1.0	566605	567645	ELCue	ANTI	8	1	True	red	40	[1350 1830  405  675]	[ 90 570 405 675]
46.053	6.0	568045	574690	ShowFixation	ANTI	9	1	True	red	600	[ 90 570 405 675]	[1350 1830  405  675]
52.698	0.2	574690	574930	BlankScreen	ANTI	9	1	True	red	600	[ 90 570 405 675]	[1350 1830  405  675]
52.938	1.0	574930	575970	ELCue	ANTI	9	1	True	red	600	[ 90 570 405 675]	[1350 1830  405  675]
54.383	2.0	576375	579015	ShowFixation	VGS	10	1	True	lime	600	[1350 1830  405  675]	[ 90 570 405 675]
57.023	0.2	579015	579250	BlankScreen	VGS	10	1	True	lime	600	[1350 1830  405  675]	[ 90 570 405 675]
57.258	1.0	579250	580291	ELCue	VGS	10	1	True	lime	600	[1350 1830  405  675]	[ 90 570 405 675]
58.703	6.0	580695	587336	ShowFixation	ANTI	11	1	True	red	180	[1035 1515  405  675]	[405 885 405 675]
65.345	0.2	587337	587575	BlankScreen	ANTI	11	1	True	red	180	[1035 1515  405  675]	[405 885 405 675]
65.584	1.0	587576	588616	ELCue	ANTI	11	1	True	red	180	[1035 1515  405  675]	[405 885 405 675]
67.027	6.0	589019	595662	ShowFixation	VGS	12	1	True	lime	460	[1035 1515  405  675]	[405 885 405 675]
73.67	0.2	595662	595901	BlankScreen	VGS	12	1	True	lime	460	[1035 1515  405  675]	[405 885 405 675]
73.909	1.0	595901	596941	ELCue	VGS	12	1	True	lime	460	[1035 1515  405  675]	[405 885 405 675]
75.353	6.0	597345	603987	ShowFixation	VGS	13	1	True	lime	600	[1350 1830  405  675]	[ 90 570 405 675]
81.995	0.2	603987	604226	BlankScreen	VGS	13	1	True	lime	600	[1350 1830  405  675]	[ 90 570 405 675]
82.234	1.0	604226	605266	ELCue	VGS	13	1	True	lime	600	[1350 1830  405  675]	[ 90 570 405 675]
83.677	6.0	605669	612312	ShowFixation	VGS	14	1	True	lime	180	[405 885 405 675]	[1035 1515  405  675]
90.32	0.2	612312	612551	BlankScreen	VGS	14	1	True	lime	180	[405 885 405 675]	[1035 1515  405  675]
90.559	1.0	612551	613591	ELCue	VGS	14	1	True	lime	180	[405 885 405 675]	[1035 1515  405  675]
92.006	2.0	613998	616637	ShowFixation	ANTI	15	1	True	red	180	[1035 1515  405  675]	[405 885 405 675]
94.645	0.2	616637	616872	BlankScreen	ANTI	15	1	True	red	180	[1035 1515  405  675]	[405 885 405 675]
94.88	1.0	616872	617912	ELCue	ANTI	15	1	True	red	180	[1035 1515  405  675]	[405 885 405 675]
96.324	2.0	618316	620957	ShowFixation	VGS	16	1	True	lime	40	[ 90 570 405 675]	[1350 1830  405  675]
98.965	0.2	620957	621193	BlankScreen	VGS	16	1	True	lime	40	[ 90 570 405 675]	[1350 1830  405  675]
99.201	1.0	621193	622233	ELCue	VGS	16	1	True	lime	40	[ 90 570 405 675]	[1350 1830  405  675]
135.321	2.0	657313	659345	ShowFixation	ANTI	17	2	False	red	600	[ 90 570 405 675]	[1350 1830  405  675]
137.353	0.2	659345	659581	BlankScreen	ANTI	17	2	False	red	600	[ 90 570 405 675]	[1350 1830  405  675]
137.589	1.0	659581	660581	ELCue	ANTI	17	2	False	red	600	[ 90 570 405 675]	[1350 1830  405  675]
138.989	2.0	660981	663016	ShowFixation	VGS	18	2	False	lime	600	[1350 1830  405  675]	[ 90 570 405 675]
141.024	0.2	663016	663251	BlankScreen	VGS	18	2	False	lime	600	[1350 1830  405  675]	[ 90 570 405 675]
141.259	1.0	663251	664251	ELCue	VGS	18	2	False	lime	600	[1350 1830  405  675]	[ 90 570 405 675]
142.663	6.0	664655	670686	ShowFixation	VGS	19	2	False	lime	460	[1035 1515  405  675]	[405 885 405 675]
148.694	0.2	670686	670925	BlankScreen	VGS	19	2	False	lime	460	[1035 1515  405  675]	[405 885 405 675]
148.933	1.0	670925	671925	ELCue	VGS	19	2	False	lime	460	[1035 1515  405  675]	[405 885 405 675]
150.337	6.0	672329	678360	ShowFixation	ANTI	20	2	False	red	460	[405 885 405 675]	[1035 1515  405  675]
156.369	0.2	678361	678599	BlankScreen	ANTI	20	2	False	red	460	[405 885 405 675]	[1035 1515  405  675]
156.608	1.0	678600	679600	ELCue	ANTI	20	2	False	red	460	[405 885 405 675]	[1035 1515  405  675]
158.012	6.0	680004	686035	ShowFixation	ANTI	21	2	False	red	600	[ 90 570 405 675]	[1350 1830  405  675]
164.043	0.2	686035	686275	BlankScreen	ANTI	21	2	False	red	600	[ 90 570 405 675]	[1350 1830  405  675]
164.283	1.0	686275	687275	ELCue	ANTI	21	2	False	red	600	[ 90 570 405 675]	[1350 1830  405  675]
165.692	2.0	687684	689710	ShowFixation	VGS	22	2	False	lime	180	[405 885 405 675]	[1035 1515  405  675]
167.718	0.2	689710	689945	BlankScreen	VGS	22	2	False	lime	180	[405 885 405 675]	[1035 1515  405  675]
167.953	1.0	689945	690945	ELCue	VGS	22	2	False	lime	180	[405 885 405 675]	[1035 1515  405  675]
169.341	6.0	691333	697363	ShowFixation	ANTI	23	2	False	red	40	[1350 1830  405  675]	[ 90 570 405 675]
175.371	0.2	697363	697602	BlankScreen	ANTI	23	2	False	red	40	[1350 1830  405  675]	[ 90 570 405 675]
175.61	1.0	697602	698602	ELCue	ANTI	23	2	False	red	40	[1350 1830  405  675]	[ 90 570 405 675]
177.02	2.0	699012	701037	ShowFixation	ANTI	24	2	False	red	460	[405 885 405 675]	[1035 1515  405  675]
179.045	0.2	701037	701273	BlankScreen	ANTI	24	2	False	red	460	[405 885 405 675]	[1035 1515  405  675]
179.281	1.0	701273	702273	ELCue	ANTI	24	2	False	red	460	[405 885 405 675]	[1035 1515  405  675]
180.685	6.0	702677	708708	ShowFixation	ANTI	25	2	False	red	180	[1035 1515  405  675]	[405 885 405 675]
186.716	0.2	708708	708947	BlankScreen	ANTI	25	2	False	red	180	[1035 1515  405  675]	[405 885 405 675]
186.955	1.0	708947	709947	ELCue	ANTI	25	2	False	red	180	[1035 1515  405  675]	[405 885 405 675]
188.366	6.0	710358	716399	ShowFixation	VGS	26	2	False	lime	600	[1350 1830  405  675]	[ 90 570 405 675]
194.407	0.2	716399	716638	BlankScreen	VGS	26	2	False	lime	600	[1350 1830  405  675]	[ 90 570 405 675]
194.646	1.0	716638	717638	ELCue	VGS	26	2	False	lime	600	[1350 1830  405  675]	[ 90 570 405 675]
196.055	2.0	718047	720073	ShowFixation	ANTI	27	2	False	red	460	[405 885 405 675]	[1035 1515  405  675]
198.081	0.2	720073	720308	BlankScreen	ANTI	27	2	False	red	460	[405 885 405 675]	[1035 1515  405  675]
198.316	1.0	720308	721308	ELCue	ANTI	27	2	False	red	460	[405 885 405 675]	[1035 1515  405  675]
199.71	6.0	721702	727726	ShowFixation	VGS	28	2	False	lime	600	[1350 1830  405  675]	[ 90 570 405 675]
205.734	0.2	727726	727966	BlankScreen	VGS	28	2	False	lime	600	[1350 1830  405  675]	[ 90 570 405 675]
205.974	1.0	727966	728966	ELCue	VGS	28	2	False	lime	600	[1350 1830  405  675]	[ 90 570 405 675]
207.361	6.0	729353	735384	ShowFixation	ANTI	29	2	False	red	40	[1350 1830  405  675]	[ 90 570 405 675]
213.392	0.2	735384	735623	BlankScreen	ANTI	29	2	False	red	40	[1350 1830  405  675]	[ 90 570 405 675]
213.631	1.0	735623	736623	ELCue	ANTI	29	2	False	red	40	[1350 1830  405  675]	[ 90 570 405 675]
215.045	6.0	737037	743075	ShowFixation	VGS	30	2	False	lime	40	[ 90 570 405 675]	[1350 1830  405  675]
221.083	0.2	743075	743314	BlankScreen	VGS	30	2	False	lime	40	[ 90 570 405 675]	[1350 1830  405  675]
221.322	1.0	743314	744314	ELCue	VGS	30	2	False	lime	40	[ 90 570 405 675]	[1350 1830  405  675]
222.73	2.0	744722	746749	ShowFixation	ANTI	31	2	False	red	180	[1035 1515  405  675]	[405 885 405 675]
224.757	0.2	746749	746984	BlankScreen	ANTI	31	2	False	red	180	[1035 1515  405  675]	[405 885 405 675]
224.992	1.0	746984	747984	ELCue	ANTI	31	2	False	red	180	[1035 1515  405  675]	[405 885 405 675]
226.404	6.0	748396	754436	ShowFixation	VGS	32	2	False	lime	180	[405 885 405 675]	[1035 1515  405  675]
232.444	0.2	754436	754675	BlankScreen	VGS	32	2	False	lime	180	[405 885 405 675]	[1035 1515  405  675]
232.683	1.0	754675	755675	ELCue	VGS	32	2	False	lime	180	[405 885 405 675]	[1035 1515  405  675]
234.092	2.0	756084	758110	ShowFixation	ANTI	33	2	False	red	600	[ 90 570 405 675]	[1350 1830  405  675]
236.118	0.2	758110	758346	BlankScreen	ANTI	33	2	False	red	600	[ 90 570 405 675]	[1350 1830  405  675]
236.354	1.0	758346	759346	ELCue	ANTI	33	2	False	red	600	[ 90 570 405 675]	[1350 1830  405  675]
237.745	6.0	759737	765764	ShowFixation	VGS	34	2	False	lime	40	[ 90 570 405 675]	[1350 1830  405  675]
243.772	0.2	765764	766003	BlankScreen	VGS	34	2	False	lime	40	[ 90 570 405 675]	[1350 1830  405  675]
244.011	1.0	766003	767003	ELCue	VGS	34	2	False	lime	40	[ 90 570 405 675]	[1350 1830  405  675]
245.415	6.0	767407	773439	ShowFixation	ANTI	35	2	False	red	600	[ 90 570 405 675]	[1350 1830  405  675]
251.447	0.2	773439	773678	BlankScreen	ANTI	35	2	False	red	600	[ 90 570 405 675]	[1350 1830  405  675]
251.686	1.0	773678	774678	ELCue	ANTI	35	2	False	red	600	[ 90 570 405 675]	[1350 1830  405  675]
253.092	2.0	775084	777113	ShowFixation	ANTI	36	2	False	red	40	[1350 1830  405  675]	[ 90 570 405 675]
255.121	0.2	777113	777349	BlankScreen	ANTI	36	2	False	red	40	[1350 1830  405  675]	[ 90 570 405 675]
255.357	1.0	777349	778349	ELCue	ANTI	36	2	False	red	40	[1350 1830  405  675]	[ 90 570 405 675]
256.761	2.0	778753	780784	ShowFixation	VGS	37	2	False	lime	460	[1035 1515  405  675]	[405 885 405 675]
258.792	0.2	780784	781019	BlankScreen	VGS	37	2	False	lime	460	[1035 1515  405  675]	[405 885 405 675]
259.027	1.0	781019	782019	ELCue	VGS	37	2	False	lime	460	[1035 1515  405  675]	[405 885 405 675]
260.4	6.0	782392	788421	ShowFixation	VGS	38	2	False	lime	460	[1035 1515  405  675]	[405 885 405 675]
266.429	0.2	788421	788660	BlankScreen	VGS	38	2	False	lime	460	[1035 1515  405  675]	[405 885 405 675]
266.668	1.0	788660	789660	ELCue	VGS	38	2	False	lime	460	[1035 1515  405  675]	[405 885 405 675]
268.078	6.0	790070	796095	ShowFixation	ANTI	39	2	False	red	460	[405 885 405 675]	[1035 1515  405  675]
274.103	0.2	796095	796334	BlankScreen	ANTI	39	2	False	red	460	[405 885 405 675]	[1035 1515  405  675]
274.342	1.0	796334	797334	ELCue	ANTI	39	2	False	red	460	[405 885 405 675]	[1035 1515  405  675]
275.73	2.0	797722	799752	ShowFixation	ANTI	40	2	False	red	40	[1350 1830  405  675]	[ 90 570 405 675]
277.76	0.2	799752	799988	BlankScreen	ANTI	40	2	False	red	40	[1350 1830  405  675]	[ 90 570 405 675]
277.996	1.0	799988	800988	ELCue	ANTI	40	2	False	red	40	[1350 1830  405  675]	[ 90 570 405 675]
279.388	2.0	801380	803406	ShowFixation	VGS	41	2	False	lime	460	[1035 1515  405  675]	[405 885 405 675]
281.414	0.2	803406	803641	BlankScreen	VGS	41	2	False	lime	460	[1035 1515  405  675]	[405 885 405 675]
281.649	1.0	803641	804641	ELCue	VGS	41	2	False	lime	460	[1035 1515  405  675]	[405 885 405 675]
283.04	2.0	805032	807059	ShowFixation	VGS	42	2	False	lime	180	[405 885 405 675]	[1035 1515  405  675]
285.067	0.2	807059	807295	BlankScreen	VGS	42	2	False	lime	180	[405 885 405 675]	[1035 1515  405  675]
285.303	1.0	807295	808295	ELCue	VGS	42	2	False	lime	180	[405 885 405 675]	[1035 1515  405  675]
286.694	6.0	808686	814713	ShowFixation	ANTI	43	2	False	red	180	[1035 1515  405  675]	[405 885 405 675]
292.721	0.2	814713	814952	BlankScreen	ANTI	43	2	False	red	180	[1035 1515  405  675]	[405 885 405 675]
292.96	1.0	814952	815952	ELCue	ANTI	43	2	False	red	180	[1035 1515  405  675]	[405 885 405 675]
294.334	2.0	816326	818354	ShowFixation	ANTI	44	2	False	red	180	[1035 1515  405  675]	[405 885 405 675]
296.362	0.2	818354	818589	BlankScreen	ANTI	44	2	False	red	180	[1035 1515  405  675]	[405 885 405 675]
296.597	1.0	818589	819589	ELCue	ANTI	44	2	False	red	180	[1035 1515  405  675]	[405 885 405 675]
298.01	6.0	820002	826041	ShowFixation	VGS	45	2	False	lime	180	[405 885 405 675]	[1035 1515  405  675]
304.049	0.2	826041	826280	BlankScreen	VGS	45	2	False	lime	180	[405 885 405 675]	[1035 1515  405  675]
304.288	1.0	826280	827280	ELCue	VGS	45	2	False	lime	180	[405 885 405 675]	[1035 1515  405  675]
305.692	2.0	827684	829715	ShowFixation	VGS	46	2	False	lime	40	[ 90 570 405 675]	[1350 1830  405  675]
307.723	0.2	829715	829950	BlankScreen	VGS	46	2	False	lime	40	[ 90 570 405 675]	[1350 1830  405  675]
307.958	1.0	829950	830950	ELCue	VGS	46	2	False	lime	40	[ 90 570 405 675]	[1350 1830  405  675]
309.346	2.0	831338	833369	ShowFixation	VGS	47	2	False	lime	40	[ 90 570 405 675]	[1350 1830  405  675]
311.377	0.2	833369	833604	BlankScreen	VGS	47	2	False	lime	40	[ 90 570 405 675]	[1350 1830  405  675]
311.612	1.0	833604	834604	ELCue	VGS	47	2	False	lime	40	[ 90 570 405 675]	[1350 1830  405  675]
313.023	2.0	835015	837056	ShowFixation	VGS	48	2	False	lime	600	[1350 1830  405  675]	[ 90 570 405 675]
315.064	0.2	837056	837291	BlankScreen	VGS	48	2	False	lime	600	[1350 1830  405  675]	[ 90 570 405 675]
315.299	1.0	837291	838291	ELCue	VGS	48	2	False	lime	600	[1350 1830  405  675]	[ 90 570 405 675]
359.525	2.0	881517	883553	ShowFixation	ANTI	49	3	False	red	600	[ 90 570 405 675]	[1350 1830  405  675]
361.561	0.2	883553	883788	BlankScreen	ANTI	49	3	False	red	600	[ 90 570 405 675]	[1350 1830  405  675]
361.796	1.0	883788	884788	ELCue	ANTI	49	3	False	red	600	[ 90 570 405 675]	[1350 1830  405  675]
363.205	2.0	885197	887223	ShowFixation	ANTI	50	3	False	red	40	[1350 1830  405  675]	[ 90 570 405 675]
365.231	0.2	887223	887458	BlankScreen	ANTI	50	3	False	red	40	[1350 1830  405  675]	[ 90 570 405 675]
365.466	1.0	887458	888458	ELCue	ANTI	50	3	False	red	40	[1350 1830  405  675]	[ 90 570 405 675]
366.875	2.0	888867	890893	ShowFixation	ANTI	51	3	False	red	460	[405 885 405 675]	[1035 1515  405  675]
368.901	0.2	890893	891128	BlankScreen	ANTI	51	3	False	red	460	[405 885 405 675]	[1035 1515  405  675]
369.136	1.0	891128	892128	ELCue	ANTI	51	3	False	red	460	[405 885 405 675]	[1035 1515  405  675]
370.539	2.0	892531	894563	ShowFixation	VGS	52	3	False	lime	460	[1035 1515  405  675]	[405 885 405 675]
372.571	0.2	894563	894799	BlankScreen	VGS	52	3	False	lime	460	[1035 1515  405  675]	[405 885 405 675]
372.807	1.0	894799	895799	ELCue	VGS	52	3	False	lime	460	[1035 1515  405  675]	[405 885 405 675]
374.216	6.0	896208	902234	ShowFixation	ANTI	53	3	False	red	40	[1350 1830  405  675]	[ 90 570 405 675]
380.242	0.2	902234	902473	BlankScreen	ANTI	53	3	False	red	40	[1350 1830  405  675]	[ 90 570 405 675]
380.481	1.0	902473	903473	ELCue	ANTI	53	3	False	red	40	[1350 1830  405  675]	[ 90 570 405 675]
381.887	2.0	903879	905908	ShowFixation	VGS	54	3	False	lime	600	[1350 1830  405  675]	[ 90 570 405 675]
383.916	0.2	905908	906143	BlankScreen	VGS	54	3	False	lime	600	[1350 1830  405  675]	[ 90 570 405 675]
384.151	1.0	906143	907143	ELCue	VGS	54	3	False	lime	600	[1350 1830  405  675]	[ 90 570 405 675]
385.561	2.0	907553	909578	ShowFixation	VGS	55	3	False	lime	600	[1350 1830  405  675]	[ 90 570 405 675]
387.586	0.2	909578	909814	BlankScreen	VGS	55	3	False	lime	600	[1350 1830  405  675]	[ 90 570 405 675]
387.822	1.0	909814	910814	ELCue	VGS	55	3	False	lime	600	[1350 1830  405  675]	[ 90 570 405 675]
389.231	2.0	911223	913248	ShowFixation	ANTI	56	3	False	red	600	[ 90 570 405 675]	[1350 1830  405  675]
391.256	0.2	913248	913484	BlankScreen	ANTI	56	3	False	red	600	[ 90 570 405 675]	[1350 1830  405  675]
391.492	1.0	913484	914484	ELCue	ANTI	56	3	False	red	600	[ 90 570 405 675]	[1350 1830  405  675]
392.884	6.0	914876	920902	ShowFixation	ANTI	57	3	False	red	40	[1350 1830  405  675]	[ 90 570 405 675]
398.91	0.2	920902	921141	BlankScreen	ANTI	57	3	False	red	40	[1350 1830  405  675]	[ 90 570 405 675]
399.149	1.0	921141	922141	ELCue	ANTI	57	3	False	red	40	[1350 1830  405  675]	[ 90 570 405 675]
400.559	2.0	922551	924576	ShowFixation	VGS	58	3	False	lime	40	[ 90 570 405 675]	[1350 1830  405  675]
402.584	0.2	924576	924812	BlankScreen	VGS	58	3	False	lime	40	[ 90 570 405 675]	[1350 1830  405  675]
402.82	1.0	924812	925812	ELCue	VGS	58	3	False	lime	40	[ 90 570 405 675]	[1350 1830  405  675]
404.227	6.0	926219	932247	ShowFixation	ANTI	59	3	False	red	460	[405 885 405 675]	[1035 1515  405  675]
410.255	0.2	932247	932486	BlankScreen	ANTI	59	3	False	red	460	[405 885 405 675]	[1035 1515  405  675]
410.494	1.0	932486	933486	ELCue	ANTI	59	3	False	red	460	[405 885 405 675]	[1035 1515  405  675]
411.865	6.0	933857	939887	ShowFixation	ANTI	60	3	False	red	600	[ 90 570 405 675]	[1350 1830  405  675]
417.895	0.2	939887	940127	BlankScreen	ANTI	60	3	False	red	600	[ 90 570 405 675]	[1350 1830  405  675]
418.135	1.0	940127	941127	ELCue	ANTI	60	3	False	red	600	[ 90 570 405 675]	[1350 1830  405  675]
419.544	2.0	941536	943562	ShowFixation	ANTI	61	3	False	red	460	[405 885 405 675]	[1035 1515  405  675]
421.57	0.2	943562	943797	BlankScreen	ANTI	61	3	False	red	460	[405 885 405 675]	[1035 1515  405  675]
421.805	1.0	943797	944797	ELCue	ANTI	61	3	False	red	460	[405 885 405 675]	[1035 1515  405  675]
423.209	2.0	945201	947232	ShowFixation	ANTI	62	3	False	red	40	[1350 1830  405  675]	[ 90 570 405 675]
425.241	0.2	947233	947467	BlankScreen	ANTI	62	3	False	red	40	[1350 1830  405  675]	[ 90 570 405 675]
425.475	1.0	947467	948467	ELCue	ANTI	62	3	False	red	40	[1350 1830  405  675]	[ 90 570 405 675]
426.878	6.0	948870	954902	ShowFixation	VGS	63	3	False	lime	460	[1035 1515  405  675]	[405 885 405 675]
432.911	0.2	954903	955141	BlankScreen	VGS	63	3	False	lime	460	[1035 1515  405  675]	[405 885 405 675]
433.15	1.0	955142	956142	ELCue	VGS	63	3	False	lime	460	[1035 1515  405  675]	[405 885 405 675]
434.558	6.0	956550	962577	ShowFixation	VGS	64	3	False	lime	40	[ 90 570 405 675]	[1350 1830  405  675]
440.585	0.2	962577	962817	BlankScreen	VGS	64	3	False	lime	40	[ 90 570 405 675]	[1350 1830  405  675]
440.825	1.0	962817	963817	ELCue	VGS	64	3	False	lime	40	[ 90 570 405 675]	[1350 1830  405  675]
442.232	2.0	964224	966252	ShowFixation	VGS	65	3	False	lime	180	[405 885 405 675]	[1035 1515  405  675]
444.26	0.2	966252	966487	BlankScreen	VGS	65	3	False	lime	180	[405 885 405 675]	[1035 1515  405  675]
444.495	1.0	966487	967487	ELCue	VGS	65	3	False	lime	180	[405 885 405 675]	[1035 1515  405  675]
445.908	6.0	967900	973939	ShowFixation	VGS	66	3	False	lime	460	[1035 1515  405  675]	[405 885 405 675]
451.947	0.2	973939	974178	BlankScreen	VGS	66	3	False	lime	460	[1035 1515  405  675]	[405 885 405 675]
452.186	1.0	974178	975178	ELCue	VGS	66	3	False	lime	460	[1035 1515  405  675]	[405 885 405 675]
453.588	6.0	975580	981613	ShowFixation	ANTI	67	3	False	red	180	[1035 1515  405  675]	[405 885 405 675]
459.621	0.2	981613	981852	BlankScreen	ANTI	67	3	False	red	180	[1035 1515  405  675]	[405 885 405 675]
459.86	1.0	981852	982852	ELCue	ANTI	67	3	False	red	180	[1035 1515  405  675]	[405 885 405 675]
461.269	6.0	983261	989287	ShowFixation	VGS	68	3	False	lime	600	[1350 1830  405  675]	[ 90 570 405 675]
467.295	0.2	989287	989526	BlankScreen	VGS	68	3	False	lime	600	[1350 1830  405  675]	[ 90 570 405 675]
467.534	1.0	989526	990526	ELCue	VGS	68	3	False	lime	600	[1350 1830  405  675]	[ 90 570 405 675]
468.919	6.0	990911	996945	ShowFixation	ANTI	69	3	False	red	460	[405 885 405 675]	[1035 1515  405  675]
474.953	0.2	996945	997184	BlankScreen	ANTI	69	3	False	red	460	[405 885 405 675]	[1035 1515  405  675]
475.192	1.0	997184	998184	ELCue	ANTI	69	3	False	red	460	[405 885 405 675]	[1035 1515  405  675]
476.599	2.0	998591	1000619	ShowFixation	VGS	70	3	False	lime	40	[ 90 570 405 675]	[1350 1830  405  675]
478.627	0.2	1000619	1000854	BlankScreen	VGS	70	3	False	lime	40	[ 90 570 405 675]	[1350 1830  405  675]
478.862	1.0	1000854	1001854	ELCue	VGS	70	3	False	lime	40	[ 90 570 405 675]	[1350 1830  405  675]
480.273	6.0	1002265	1008306	ShowFixation	VGS	71	3	False	lime	180	[405 885 405 675]	[1035 1515  405  675]
486.314	0.2	1008306	1008545	BlankScreen	VGS	71	3	False	lime	180	[405 885 405 675]	[1035 1515  405  675]
486.553	1.0	1008545	1009545	ELCue	VGS	71	3	False	lime	180	[405 885 405 675]	[1035 1515  405  675]
487.959	6.0	1009951	1015980	ShowFixation	VGS	72	3	False	lime	600	[1350 1830  405  675]	[ 90 570 405 675]
493.988	0.2	1015980	1016219	BlankScreen	VGS	72	3	False	lime	600	[1350 1830  405  675]	[ 90 570 405 675]
494.227	1.0	1016219	1017219	ELCue	VGS	72	3	False	lime	600	[1350 1830  405  675]	[ 90 570 405 675]
495.62	6.0	1017612	1023638	ShowFixation	VGS	73	3	False	lime	40	[ 90 570 405 675]	[1350 1830  405  675]
501.646	0.2	1023638	1023877	BlankScreen	VGS	73	3	False	lime	40	[ 90 570 405 675]	[1350 1830  405  675]
501.885	1.0	1023877	1024877	ELCue	VGS	73	3	False	lime	40	[ 90 570 405 675]	[1350 1830  405  675]
503.296	2.0	1025288	1027329	ShowFixation	ANTI	74	3	False	red	180	[1035 1515  405  675]	[405 885 405 675]
505.337	0.2	1027329	1027564	BlankScreen	ANTI	74	3	False	red	180	[1035 1515  405  675]	[405 885 405 675]
505.572	1.0	1027564	1028564	ELCue	ANTI	74	3	False	red	180	[1035 1515  405  675]	[405 885 405 675]
506.979	2.0	1028971	1030999	ShowFixation	ANTI	75	3	False	red	180	[1035 1515  405  675]	[405 885 405 675]
509.007	0.2	1030999	1031234	BlankScreen	ANTI	75	3	False	red	180	[1035 1515  405  675]	[405 885 405 675]
509.242	1.0	1031234	1032234	ELCue	ANTI	75	3	False	red	180	[1035 1515  405  675]	[405 885 405 675]
510.651	6.0	1032643	1038669	ShowFixation	VGS	76	3	False	lime	180	[405 885 405 675]	[1035 1515  405  675]
516.677	0.2	1038669	1038908	BlankScreen	VGS	76	3	False	lime	180	[405 885 405 675]	[1035 1515  405  675]
516.917	1.0	1038909	1039909	ELCue	VGS	76	3	False	lime	180	[405 885 405 675]	[1035 1515  405  675]
518.31	2.0	1040302	1042327	ShowFixation	VGS	77	3	False	lime	460	[1035 1515  405  675]	[405 885 405 675]
520.336	0.2	1042328	1042562	BlankScreen	VGS	77	3	False	lime	460	[1035 1515  405  675]	[405 885 405 675]
520.571	1.0	1042563	1043563	ELCue	VGS	77	3	False	lime	460	[1035 1515  405  675]	[405 885 405 675]
521.99	6.0	1043982	1050015	ShowFixation	ANTI	78	3	False	red	180	[1035 1515  405  675]	[405 885 405 675]
528.023	0.2	1050015	1050254	BlankScreen	ANTI	78	3	False	red	180	[1035 1515  405  675]	[405 885 405 675]
528.262	1.0	1050254	1051254	ELCue	ANTI	78	3	False	red	180	[1035 1515  405  675]	[405 885 405 675]
529.671	2.0	1051663	1053689	ShowFixation	VGS	79	3	False	lime	180	[405 885 405 675]	[1035 1515  405  675]
531.697	0.2	1053689	1053924	BlankScreen	VGS	79	3	False	lime	180	[405 885 405 675]	[1035 1515  405  675]
531.932	1.0	1053924	1054924	ELCue	VGS	79	3	False	lime	180	[405 885 405 675]	[1035 1515  405  675]
533.343	6.0	1055335	1061376	ShowFixation	ANTI	80	3	False	red	600	[ 90 570 405 675]	[1350 1830  405  675]
539.384	0.2	1061376	1061615	BlankScreen	ANTI	80	3	False	red	600	[ 90 570 405 675]	[1350 1830  405  675]
539.623	1.0	1061615	1062615	ELCue	ANTI	80	3	False	red	600	[ 90 570 405 675]	[1350 1830  405  675]
585.361	6.0	1107353	1113394	ShowFixation	ANTI	81	4	False	red	600	[ 90 570 405 675]	[1350 1830  405  675]
591.402	0.2	1113394	1113633	BlankScreen	ANTI	81	4	False	red	600	[ 90 570 405 675]	[1350 1830  405  675]
591.641	1.0	1113633	1114633	ELCue	ANTI	81	4	False	red	600	[ 90 570 405 675]	[1350 1830  405  675]
593.044	6.0	1115036	1121068	ShowFixation	VGS	82	4	False	lime	40	[ 90 570 405 675]	[1350 1830  405  675]
599.076	0.2	1121068	1121307	BlankScreen	VGS	82	4	False	lime	40	[ 90 570 405 675]	[1350 1830  405  675]
599.315	1.0	1121307	1122307	ELCue	VGS	82	4	False	lime	40	[ 90 570 405 675]	[1350 1830  405  675]
600.721	2.0	1122713	1124742	ShowFixation	VGS	83	4	False	lime	600	[1350 1830  405  675]	[ 90 570 405 675]
602.75	0.2	1124742	1124977	BlankScreen	VGS	83	4	False	lime	600	[1350 1830  405  675]	[ 90 570 405 675]
602.985	1.0	1124977	1125977	ELCue	VGS	83	4	False	lime	600	[1350 1830  405  675]	[ 90 570 405 675]
604.377	6.0	1126369	1132396	ShowFixation	VGS	84	4	False	lime	180	[405 885 405 675]	[1035 1515  405  675]
610.404	0.2	1132396	1132635	BlankScreen	VGS	84	4	False	lime	180	[405 885 405 675]	[1035 1515  405  675]
610.643	1.0	1132635	1133635	ELCue	VGS	84	4	False	lime	180	[405 885 405 675]	[1035 1515  405  675]
612.051	6.0	1134043	1140070	ShowFixation	ANTI	85	4	False	red	460	[405 885 405 675]	[1035 1515  405  675]
618.079	0.2	1140071	1140309	BlankScreen	ANTI	85	4	False	red	460	[405 885 405 675]	[1035 1515  405  675]
618.318	1.0	1140310	1141310	ELCue	ANTI	85	4	False	red	460	[405 885 405 675]	[1035 1515  405  675]
619.725	2.0	1141717	1143745	ShowFixation	ANTI	86	4	False	red	180	[1035 1515  405  675]	[405 885 405 675]
621.753	0.2	1143745	1143981	BlankScreen	ANTI	86	4	False	red	180	[1035 1515  405  675]	[405 885 405 675]
621.989	1.0	1143981	1144981	ELCue	ANTI	86	4	False	red	180	[1035 1515  405  675]	[405 885 405 675]
623.397	2.0	1145389	1147415	ShowFixation	VGS	87	4	False	lime	460	[1035 1515  405  675]	[405 885 405 675]
625.423	0.2	1147415	1147651	BlankScreen	VGS	87	4	False	lime	460	[1035 1515  405  675]	[405 885 405 675]
625.659	1.0	1147651	1148651	ELCue	VGS	87	4	False	lime	460	[1035 1515  405  675]	[405 885 405 675]
627.07	6.0	1149062	1155102	ShowFixation	ANTI	88	4	False	red	40	[1350 1830  405  675]	[ 90 570 405 675]
633.11	0.2	1155102	1155342	BlankScreen	ANTI	88	4	False	red	40	[1350 1830  405  675]	[ 90 570 405 675]
633.35	1.0	1155342	1156342	ELCue	ANTI	88	4	False	red	40	[1350 1830  405  675]	[ 90 570 405 675]
634.76	6.0	1156752	1162777	ShowFixation	VGS	89	4	False	lime	460	[1035 1515  405  675]	[405 885 405 675]
640.785	0.2	1162777	1163016	BlankScreen	VGS	89	4	False	lime	460	[1035 1515  405  675]	[405 885 405 675]
641.024	1.0	1163016	1164016	ELCue	VGS	89	4	False	lime	460	[1035 1515  405  675]	[405 885 405 675]
642.417	2.0	1164409	1166434	ShowFixation	ANTI	90	4	False	red	180	[1035 1515  405  675]	[405 885 405 675]
644.442	0.2	1166434	1166670	BlankScreen	ANTI	90	4	False	red	180	[1035 1515  405  675]	[405 885 405 675]
644.678	1.0	1166670	1167670	ELCue	ANTI	90	4	False	red	180	[1035 1515  405  675]	[405 885 405 675]
646.089	6.0	1168081	1174121	ShowFixation	ANTI	91	4	False	red	40	[1350 1830  405  675]	[ 90 570 405 675]
652.129	0.2	1174121	1174360	BlankScreen	ANTI	91	4	False	red	40	[1350 1830  405  675]	[ 90 570 405 675]
652.368	1.0	1174360	1175360	ELCue	ANTI	91	4	False	red	40	[1350 1830  405  675]	[ 90 570 405 675]
653.78	6.0	1175772	1181812	ShowFixation	ANTI	92	4	False	red	180	[1035 1515  405  675]	[405 885 405 675]
659.82	0.2	1181812	1182051	BlankScreen	ANTI	92	4	False	red	180	[1035 1515  405  675]	[405 885 405 675]
660.059	1.0	1182051	1183051	ELCue	ANTI	92	4	False	red	180	[1035 1515  405  675]	[405 885 405 675]
661.473	2.0	1183465	1185503	ShowFixation	ANTI	93	4	False	red	600	[ 90 570 405 675]	[1350 1830  405  675]
663.511	0.2	1185503	1185738	BlankScreen	ANTI	93	4	False	red	600	[ 90 570 405 675]	[1350 1830  405  675]
663.746	1.0	1185738	1186738	ELCue	ANTI	93	4	False	red	600	[ 90 570 405 675]	[1350 1830  405  675]
665.157	6.0	1187149	1193190	ShowFixation	ANTI	94	4	False	red	180	[1035 1515  405  675]	[405 885 405 675]
671.198	0.2	1193190	1193429	BlankScreen	ANTI	94	4	False	red	180	[1035 1515  405  675]	[405 885 405 675]
671.437	1.0	1193429	1194429	ELCue	ANTI	94	4	False	red	180	[1035 1515  405  675]	[405 885 405 675]
672.844	2.0	1194836	1196864	ShowFixation	ANTI	95	4	False	red	40	[1350 1830  405  675]	[ 90 570 405 675]
674.872	0.2	1196864	1197100	BlankScreen	ANTI	95	4	False	red	40	[1350 1830  405  675]	[ 90 570 405 675]
675.108	1.0	1197100	1198100	ELCue	ANTI	95	4	False	red	40	[1350 1830  405  675]	[ 90 570 405 675]
676.515	2.0	1198507	1200534	ShowFixation	VGS	96	4	False	lime	600	[1350 1830  405  675]	[ 90 570 405 675]
678.542	0.2	1200534	1200770	BlankScreen	VGS	96	4	False	lime	600	[1350 1830  405  675]	[ 90 570 405 675]
678.778	1.0	1200770	1201770	ELCue	VGS	96	4	False	lime	600	[1350 1830  405  675]	[ 90 570 405 675]
680.201	6.0	1202193	1208221	ShowFixation	VGS	97	4	False	lime	180	[405 885 405 675]	[1035 1515  405  675]
686.229	0.2	1208221	1208461	BlankScreen	VGS	97	4	False	lime	180	[405 885 405 675]	[1035 1515  405  675]
686.469	1.0	1208461	1209461	ELCue	VGS	97	4	False	lime	180	[405 885 405 675]	[1035 1515  405  675]
687.876	2.0	1209868	1211896	ShowFixation	ANTI	98	4	False	red	460	[405 885 405 675]	[1035 1515  405  675]
689.904	0.2	1211896	1212131	BlankScreen	ANTI	98	4	False	red	460	[405 885 405 675]	[1035 1515  405  675]
690.139	1.0	1212131	1213131	ELCue	ANTI	98	4	False	red	460	[405 885 405 675]	[1035 1515  405  675]
691.553	2.0	1213545	1215583	ShowFixation	ANTI	99	4	False	red	600	[ 90 570 405 675]	[1350 1830  405  675]
693.591	0.2	1215583	1215818	BlankScreen	ANTI	99	4	False	red	600	[ 90 570 405 675]	[1350 1830  405  675]
693.826	1.0	1215818	1216818	ELCue	ANTI	99	4	False	red	600	[ 90 570 405 675]	[1350 1830  405  675]
695.234	2.0	1217226	1219253	ShowFixation	ANTI	100	4	False	red	40	[1350 1830  405  675]	[ 90 570 405 675]
697.261	0.2	1219253	1219488	BlankScreen	ANTI	100	4	False	red	40	[1350 1830  405  675]	[ 90 570 405 675]
697.496	1.0	1219488	1220488	ELCue	ANTI	100	4	False	red	40	[1350 1830  405  675]	[ 90 570 405 675]
698.896	2.0	1220888	1222923	ShowFixation	VGS	101	4	False	lime	180	[405 885 405 675]	[1035 1515  405  675]
700.931	0.2	1222923	1223159	BlankScreen	VGS	101	4	False	lime	180	[405 885 405 675]	[1035 1515  405  675]
701.167	1.0	1223159	1224159	ELCue	VGS	101	4	False	lime	180	[405 885 405 675]	[1035 1515  405  675]
702.575	6.0	1224567	1230595	ShowFixation	ANTI	102	4	False	red	460	[405 885 405 675]	[1035 1515  405  675]
708.603	0.2	1230595	1230834	BlankScreen	ANTI	102	4	False	red	460	[405 885 405 675]	[1035 1515  405  675]
708.842	1.0	1230834	1231834	ELCue	ANTI	102	4	False	red	460	[405 885 405 675]	[1035 1515  405  675]
710.244	6.0	1232236	1238269	ShowFixation	VGS	103	4	False	lime	40	[ 90 570 405 675]	[1350 1830  405  675]
716.277	0.2	1238269	1238508	BlankScreen	VGS	103	4	False	lime	40	[ 90 570 405 675]	[1350 1830  405  675]
716.516	1.0	1238508	1239508	ELCue	VGS	103	4	False	lime	40	[ 90 570 405 675]	[1350 1830  405  675]
717.928	6.0	1239920	1245960	ShowFixation	VGS	104	4	False	lime	600	[1350 1830  405  675]	[ 90 570 405 675]
723.968	0.2	1245960	1246199	BlankScreen	VGS	104	4	False	lime	600	[1350 1830  405  675]	[ 90 570 405 675]
724.207	1.0	1246199	1247199	ELCue	VGS	104	4	False	lime	600	[1350 1830  405  675]	[ 90 570 405 675]
725.607	2.0	1247599	1249634	ShowFixation	VGS	105	4	False	lime	40	[ 90 570 405 675]	[1350 1830  405  675]
727.642	0.2	1249634	1249869	BlankScreen	VGS	105	4	False	lime	40	[ 90 570 405 675]	[1350 1830  405  675]
727.877	1.0	1249869	1250869	ELCue	VGS	105	4	False	lime	40	[ 90 570 405 675]	[1350 1830  405  675]
729.29	6.0	1251282	1257321	ShowFixation	VGS	106	4	False	lime	460	[1035 1515  405  675]	[405 885 405 675]
735.329	0.2	1257321	1257560	BlankScreen	VGS	106	4	False	lime	460	[1035 1515  405  675]	[405 885 405 675]
735.568	1.0	1257560	1258560	ELCue	VGS	106	4	False	lime	460	[1035 1515  405  675]	[405 885 405 675]
736.975	6.0	1258967	1264995	ShowFixation	VGS	107	4	False	lime	600	[1350 1830  405  675]	[ 90 570 405 675]
743.003	0.2	1264995	1265234	BlankScreen	VGS	107	4	False	lime	600	[1350 1830  405  675]	[ 90 570 405 675]
743.242	1.0	1265234	1266234	ELCue	VGS	107	4	False	lime	600	[1350 1830  405  675]	[ 90 570 405 675]
744.647	2.0	1266639	1268669	ShowFixation	VGS	108	4	False	lime	180	[405 885 405 675]	[1035 1515  405  675]
746.677	0.2	1268669	1268905	BlankScreen	VGS	108	4	False	lime	180	[405 885 405 675]	[1035 1515  405  675]
746.913	1.0	1268905	1269905	ELCue	VGS	108	4	False	lime	180	[405 885 405 675]	[1035 1515  405  675]
748.323	2.0	1270315	1272340	ShowFixation	VGS	109	4	False	lime	460	[1035 1515  405  675]	[405 885 405 675]
750.348	0.2	1272340	1272575	BlankScreen	VGS	109	4	False	lime	460	[1035 1515  405  675]	[405 885 405 675]
750.583	1.0	1272575	1273575	ELCue	VGS	109	4	False	lime	460	[1035 1515  405  675]	[405 885 405 675]
751.991	6.0	1273983	1280010	ShowFixation	ANTI	110	4	False	red	600	[ 90 570 405 675]	[1350 1830  405  675]
758.018	0.2	1280010	1280249	BlankScreen	ANTI	110	4	False	red	600	[ 90 570 405 675]	[1350 1830  405  675]
758.257	1.0	1280249	1281249	ELCue	ANTI	110	4	False	red	600	[ 90 570 405 675]	[1350 1830  405  675]
759.67	2.0	1281662	1283701	ShowFixation	ANTI	111	4	False	red	460	[405 885 405 675]	[1035 1515  405  675]
761.709	0.2	1283701	1283936	BlankScreen	ANTI	111	4	False	red	460	[405 885 405 675]	[1035 1515  405  675]
761.944	1.0	1283936	1284936	ELCue	ANTI	111	4	False	red	460	[405 885 405 675]	[1035 1515  405  675]
763.319	2.0	1285311	1287338	ShowFixation	VGS	112	4	False	lime	40	[ 90 570 405 675]	[1350 1830  405  675]
765.346	0.2	1287338	1287573	BlankScreen	VGS	112	4	False	lime	40	[ 90 570 405 675]	[1350 1830  405  675]
765.581	1.0	1287573	1288573	ELCue	VGS	112	4	False	lime	40	[ 90 570 405 675]	[1350 1830  405  675]
