participant_id	condition	accuracy	reaction_time
sub-22881	congruent	1	0.419
sub-22881	congruent	1	0.394
sub-22881	incongruent	1	0.505
sub-22881	congruent	1	0.520
sub-22881	incongruent	0	0.437
sub-22881	incongruent	1	0.445
sub-22881	congruent	1	0.423
sub-22881	congruent	1	0.392
sub-22881	incongruent	1	0.602
sub-22881	incongruent	1	0.621
sub-22881	congruent	1	0.430
sub-22881	incongruent	1	0.479
sub-22881	incongruent	0	0.625
sub-22881	incongruent	1	0.523
sub-22881	congruent	1	0.517
sub-22881	incongruent	0	0.352
sub-22881	congruent	1	0.448
sub-22881	congruent	1	0.433
sub-22881	incongruent	1	0.419
sub-22881	incongruent	1	0.406
sub-22881	incongruent	1	0.461
sub-22881	congruent	1	0.504
sub-22881	incongruent	1	0.538
sub-22881	congruent	1	0.456
sub-22881	congruent	1	0.492
sub-22881	congruent	1	0.471
sub-22881	congruent	1	0.403
sub-22881	incongruent	1	0.483
sub-22881	congruent	1	0.429
sub-22881	incongruent	0	0.470
sub-22881	incongruent	1	0.672
sub-22881	congruent	1	0.453
sub-22881	incongruent	1	0.581
sub-22881	congruent	1	0.440
sub-22881	incongruent	1	0.437
sub-22881	incongruent	1	0.474
sub-22881	congruent	1	0.476
sub-22881	congruent	1	0.448
sub-22881	congruent	1	0.552
sub-22881	congruent	1	0.457
sub-22881	incongruent	1	1.114
sub-22881	incongruent	0	0.511
sub-22881	incongruent	1	0.678
sub-22881	incongruent	1	0.580
sub-22881	incongruent	1	0.540
sub-22881	incongruent	1	0.610
sub-22881	congruent	1	0.531
sub-22881	congruent	1	0.588
sub-22881	congruent	1	0.498
sub-22881	congruent	1	0.456
sub-22881	congruent	1	0.444
sub-22881	incongruent	1	0.732
sub-22881	incongruent	1	0.575
sub-22881	congruent	1	0.404
sub-22881	incongruent	1	0.509
sub-22881	congruent	1	0.424
sub-22881	congruent	1	0.439
sub-22881	incongruent	1	0.622
sub-22881	incongruent	1	0.512
sub-22881	congruent	1	0.522
sub-22881	incongruent	1	0.774
sub-22881	incongruent	1	0.393
sub-22881	congruent	1	0.430
sub-22881	congruent	1	0.356
sub-22881	incongruent	1	0.441
sub-22881	congruent	1	0.406
sub-22881	congruent	1	0.466
sub-22881	incongruent	0	0.388
sub-22881	congruent	1	0.447
sub-22881	congruent	1	0.423
sub-22881	incongruent	0	0.508
sub-22881	congruent	1	0.447
sub-22881	incongruent	0	0.445
sub-22881	incongruent	0	0.447
sub-22881	congruent	1	0.442
sub-22881	incongruent	1	0.630
sub-22881	incongruent	0	0.496
sub-22881	incongruent	1	0.508
sub-22881	incongruent	1	0.590
sub-22881	congruent	1	0.455
sub-22881	congruent	1	0.443
sub-22881	congruent	1	0.585
sub-22881	incongruent	1	0.495
sub-22881	congruent	1	0.446
sub-22881	congruent	1	0.557
sub-22881	incongruent	0	0.345
sub-22881	congruent	1	0.424
sub-22881	incongruent	1	0.498
sub-22881	incongruent	1	0.488
sub-22881	congruent	1	0.475
sub-22881	congruent	1	0.410
sub-22881	incongruent	1	0.493
sub-22881	incongruent	1	0.574
sub-22881	incongruent	1	0.571
sub-22881	congruent	1	0.410
sub-22881	incongruent	0	0.521
sub-22881	congruent	1	0.457
sub-22881	incongruent	1	0.324
sub-22881	incongruent	0	0.418
sub-22881	congruent	1	0.458
sub-22881	congruent	1	0.716
sub-22881	incongruent	1	0.498
sub-22881	congruent	1	0.464
sub-22881	incongruent	1	0.565
sub-22881	incongruent	1	0.552
sub-22881	congruent	1	0.515
sub-22881	congruent	1	0.459
sub-22881	incongruent	1	0.623
sub-22881	congruent	1	0.537
sub-22881	incongruent	1	0.549
sub-22881	incongruent	1	0.682
sub-22881	incongruent	0	0.563
sub-22881	congruent	1	0.533
sub-22881	congruent	1	0.445
sub-22881	congruent	1	0.431
sub-22881	congruent	1	0.454
sub-22881	congruent	1	0.475
sub-22881	incongruent	1	0.458
sub-22881	congruent	1	0.432
sub-22881	incongruent	1	0.574
sub-22881	congruent	1	0.661
sub-22881	congruent	1	0.414
sub-22881	incongruent	1	0.390
sub-22881	congruent	1	0.408
sub-22881	incongruent	1	0.476
sub-22881	congruent	1	0.374
sub-22881	incongruent	1	0.507
sub-22881	congruent	1	0.490
sub-22881	incongruent	1	0.539
sub-22881	incongruent	1	0.568
sub-22881	incongruent	1	0.585
sub-22881	congruent	1	0.452
sub-22881	congruent	1	0.529
sub-22881	congruent	1	0.429
sub-22881	congruent	0	0.421
sub-22881	incongruent	0	0.413
sub-22881	congruent	1	0.483
sub-22881	incongruent	1	0.462
sub-22881	incongruent	0	0.402
sub-22881	congruent	1	0.367
sub-22881	congruent	1	0.486
sub-22881	incongruent	1	0.510
sub-22881	incongruent	1	0.544
sub-22881	congruent	1	0.489
sub-22881	incongruent	1	0.491
sub-22881	incongruent	0	0.373
sub-22881	incongruent	1	0.519
sub-22881	congruent	1	0.464
sub-22881	congruent	1	0.438
sub-22881	incongruent	0	0.459
sub-22881	incongruent	1	0.483
sub-22881	congruent	1	0.447
sub-22881	incongruent	1	0.516
sub-22881	incongruent	0	0.329
sub-22881	incongruent	1	0.543
sub-22881	congruent	1	0.358
sub-22881	incongruent	1	0.497
sub-22881	incongruent	1	0.415
sub-22881	incongruent	1	0.649
sub-22881	incongruent	0	0.433
sub-22881	congruent	1	0.476
sub-22881	incongruent	1	0.672
sub-22881	congruent	1	0.524
sub-22881	incongruent	1	0.429
sub-22881	incongruent	1	0.410
sub-22881	congruent	1	0.453
sub-22881	congruent	1	0.444
sub-22881	congruent	1	0.327
sub-22881	incongruent	0	0.522
sub-22881	congruent	1	0.431
sub-22881	incongruent	0	0.427
sub-22881	congruent	1	0.452
sub-22881	congruent	1	0.433
sub-22881	congruent	1	0.502
sub-22881	congruent	1	0.452
sub-22881	incongruent	1	0.536
sub-22881	incongruent	1	0.512
sub-22881	congruent	0	0.519
sub-22881	congruent	1	0.486
sub-22881	congruent	1	0.385
sub-22881	incongruent	1	0.680
sub-22881	congruent	1	0.431
sub-22881	incongruent	1	0.445
sub-22881	incongruent	0	0.366
sub-22881	congruent	1	0.451
sub-22881	incongruent	1	0.557
sub-22881	incongruent	0	0.468
sub-22881	congruent	1	0.266
sub-22881	congruent	1	0.389
sub-22881	congruent	1	0.288
sub-22881	congruent	1	0.502
sub-22881	incongruent	0	0.312
sub-22881	congruent	0	0.642
sub-22881	incongruent	0	0.337
sub-22881	incongruent	1	0.316
sub-22881	incongruent	0	0.394
sub-22881	congruent	1	0.410
sub-22881	incongruent	0	0.397
sub-22881	congruent	1	0.463
sub-22881	congruent	1	0.478
sub-22881	incongruent	1	0.498
sub-22881	congruent	1	0.495
sub-22881	incongruent	1	0.495
sub-22881	congruent	1	0.544
sub-22881	incongruent	0	0.304
sub-22881	incongruent	1	0.506
sub-22881	incongruent	1	0.480
sub-22881	congruent	1	0.416
sub-22881	incongruent	0	0.468
sub-22881	congruent	1	0.292
sub-22881	congruent	1	0.417
sub-22881	congruent	1	0.321
sub-22881	congruent	1	0.245
sub-22881	congruent	1	0.255
sub-22881	incongruent	0	0.400
sub-22881	incongruent	0	0.335
sub-22881	incongruent	1	0.067
sub-22881	congruent	1	0.372
sub-22881	incongruent	1	0.260
sub-22881	congruent	0	0.413
sub-22881	congruent	1	0.432
sub-22881	incongruent	1	0.478
sub-22881	incongruent	1	0.595
sub-22881	incongruent	1	0.453
sub-22881	congruent	1	0.396
sub-22881	congruent	0	0.110
sub-22881	congruent	1	0.371
sub-22881	congruent	0	0.279
sub-22881	congruent	1	0.359
sub-22881	incongruent	1	0.335
sub-22881	congruent	1	0.433
sub-22881	incongruent	1	0.463
sub-22881	congruent	1	0.383
sub-22881	incongruent	1	0.334
sub-22881	congruent	1	0.482
sub-22881	congruent	1	0.414
sub-22881	incongruent	0	0.432
sub-22881	incongruent	0	0.401
sub-22881	incongruent	1	0.957
sub-22881	incongruent	1	0.748
