participant_id	condition	accuracy	reaction_time
sub-23990	incongruent	1	1.238
sub-23990	incongruent	1	0.868
sub-23990	incongruent	1	0.766
sub-23990	incongruent	1	0.626
sub-23990	incongruent	1	0.785
sub-23990	incongruent	1	0.695
sub-23990	congruent	1	0.760
sub-23990	congruent	1	0.589
sub-23990	incongruent	1	0.668
sub-23990	congruent	1	0.728
sub-23990	congruent	1	0.485
sub-23990	incongruent	1	0.686
sub-23990	congruent	1	0.781
sub-23990	incongruent	1	0.624
sub-23990	congruent	1	0.828
sub-23990	congruent	1	0.813
sub-23990	congruent	1	0.624
sub-23990	congruent	1	0.668
sub-23990	incongruent	1	1.007
sub-23990	incongruent	1	0.572
sub-23990	incongruent	1	0.763
sub-23990	congruent	1	0.602
sub-23990	congruent	1	0.729
sub-23990	incongruent	1	0.962
sub-23990	incongruent	1	0.818
sub-23990	incongruent	1	1.310
sub-23990	congruent	1	0.577
sub-23990	congruent	1	0.741
sub-23990	congruent	1	0.611
sub-23990	incongruent	1	0.757
sub-23990	incongruent	1	0.763
sub-23990	incongruent	1	0.722
sub-23990	congruent	1	0.548
sub-23990	incongruent	1	0.651
sub-23990	incongruent	1	0.651
sub-23990	incongruent	0	0.000
sub-23990	congruent	1	0.663
sub-23990	incongruent	1	0.695
sub-23990	congruent	1	0.630
sub-23990	congruent	1	0.479
sub-23990	congruent	1	0.519
sub-23990	incongruent	1	0.614
sub-23990	congruent	1	0.992
sub-23990	incongruent	1	0.612
sub-23990	congruent	1	0.593
sub-23990	congruent	1	0.903
sub-23990	congruent	1	0.671
sub-23990	congruent	1	0.698
sub-23990	congruent	1	0.809
sub-23990	congruent	1	0.637
sub-23990	congruent	1	0.617
sub-23990	incongruent	1	0.762
sub-23990	congruent	1	0.717
sub-23990	incongruent	1	0.723
sub-23990	congruent	1	0.508
sub-23990	incongruent	1	0.644
sub-23990	incongruent	1	0.612
sub-23990	incongruent	1	0.713
sub-23990	congruent	1	0.648
sub-23990	incongruent	1	0.734
sub-23990	incongruent	1	0.761
sub-23990	incongruent	0	0.388
sub-23990	congruent	1	0.469
sub-23990	congruent	1	0.525
sub-23990	incongruent	0	0.557
sub-23990	congruent	1	0.448
sub-23990	incongruent	1	0.724
sub-23990	incongruent	1	0.588
sub-23990	congruent	1	0.682
sub-23990	congruent	1	0.477
sub-23990	congruent	1	0.494
sub-23990	incongruent	1	0.578
sub-23990	congruent	1	0.514
sub-23990	congruent	1	0.637
sub-23990	incongruent	1	1.137
sub-23990	congruent	1	0.541
sub-23990	congruent	1	0.643
sub-23990	congruent	1	0.705
sub-23990	incongruent	1	0.586
sub-23990	congruent	1	0.437
sub-23990	incongruent	1	0.556
sub-23990	incongruent	1	0.576
sub-23990	incongruent	0	0.464
sub-23990	incongruent	1	0.751
sub-23990	incongruent	1	0.739
sub-23990	congruent	1	0.904
sub-23990	congruent	1	0.485
sub-23990	incongruent	1	0.562
sub-23990	incongruent	1	0.635
sub-23990	incongruent	1	0.622
sub-23990	incongruent	1	0.631
sub-23990	congruent	1	0.487
sub-23990	congruent	1	0.569
sub-23990	congruent	1	0.529
sub-23990	congruent	1	0.689
sub-23990	incongruent	1	0.588
sub-23990	congruent	1	0.459
sub-23990	congruent	1	0.496
sub-23990	incongruent	1	0.511
sub-23990	congruent	1	0.528
sub-23990	congruent	1	0.743
sub-23990	congruent	1	1.047
sub-23990	congruent	1	0.756
sub-23990	incongruent	1	0.697
sub-23990	incongruent	1	0.649
sub-23990	incongruent	0	0.000
sub-23990	congruent	1	0.512
sub-23990	incongruent	1	1.710
sub-23990	congruent	1	0.574
sub-23990	incongruent	1	0.647
sub-23990	congruent	1	0.501
sub-23990	incongruent	1	0.731
sub-23990	incongruent	1	0.932
sub-23990	incongruent	1	1.291
sub-23990	incongruent	1	0.720
sub-23990	incongruent	1	0.614
sub-23990	congruent	1	0.577
sub-23990	congruent	1	0.492
sub-23990	incongruent	1	0.757
sub-23990	congruent	1	0.527
sub-23990	incongruent	1	0.595
sub-23990	congruent	1	0.584
sub-23990	incongruent	1	0.301
sub-23990	congruent	1	0.522
sub-23990	incongruent	1	0.595
sub-23990	congruent	1	0.496
sub-23990	congruent	1	0.508
sub-23990	congruent	1	0.594
sub-23990	congruent	1	0.511
sub-23990	incongruent	1	0.723
sub-23990	incongruent	1	0.442
sub-23990	congruent	1	0.573
sub-23990	incongruent	1	0.522
sub-23990	congruent	1	0.456
sub-23990	incongruent	1	0.676
sub-23990	incongruent	1	0.663
sub-23990	incongruent	1	0.766
sub-23990	congruent	1	0.486
sub-23990	congruent	0	0.709
sub-23990	congruent	1	0.486
sub-23990	congruent	1	0.519
sub-23990	incongruent	1	0.680
sub-23990	incongruent	1	0.879
sub-23990	congruent	1	0.568
sub-23990	incongruent	0	0.648
sub-23990	incongruent	1	0.775
sub-23990	congruent	0	0.635
sub-23990	congruent	1	0.722
sub-23990	incongruent	1	0.808
sub-23990	congruent	1	0.565
sub-23990	congruent	1	0.581
sub-23990	congruent	1	0.567
sub-23990	incongruent	1	1.052
sub-23990	incongruent	1	0.518
sub-23990	congruent	1	0.804
sub-23990	incongruent	1	0.473
sub-23990	congruent	1	0.560
sub-23990	congruent	1	0.487
sub-23990	incongruent	0	0.434
sub-23990	congruent	1	0.530
sub-23990	incongruent	1	0.520
sub-23990	congruent	1	0.615
sub-23990	incongruent	1	0.573
sub-23990	congruent	1	0.507
sub-23990	incongruent	1	0.658
sub-23990	congruent	1	0.398
sub-23990	congruent	1	0.348
sub-23990	incongruent	1	0.570
sub-23990	incongruent	1	0.840
sub-23990	congruent	1	0.374
sub-23990	incongruent	0	0.345
sub-23990	congruent	1	0.551
sub-23990	incongruent	0	0.421
sub-23990	incongruent	1	0.627
sub-23990	incongruent	1	0.596
sub-23990	incongruent	1	0.621
sub-23990	incongruent	1	0.691
sub-23990	congruent	1	0.684
sub-23990	congruent	1	0.680
sub-23990	incongruent	1	0.692
sub-23990	congruent	1	0.502
sub-23990	congruent	1	0.449
sub-23990	congruent	1	0.491
sub-23990	incongruent	1	0.521
sub-23990	congruent	1	0.307
sub-23990	congruent	1	0.477
sub-23990	incongruent	0	0.598
sub-23990	congruent	1	1.013
sub-23990	incongruent	1	0.634
sub-23990	congruent	1	0.327
sub-23990	incongruent	0	0.457
sub-23990	incongruent	1	0.995
sub-23990	congruent	0	0.909
sub-23990	congruent	1	0.630
sub-23990	congruent	1	0.482
sub-23990	incongruent	1	0.574
sub-23990	congruent	1	0.661
sub-23990	incongruent	1	0.906
sub-23990	incongruent	0	0.475
sub-23990	incongruent	1	0.658
sub-23990	incongruent	1	0.683
sub-23990	congruent	1	0.467
sub-23990	congruent	1	0.484
sub-23990	congruent	1	0.597
sub-23990	incongruent	1	0.651
sub-23990	congruent	1	0.560
sub-23990	incongruent	1	0.735
sub-23990	incongruent	1	0.665
sub-23990	incongruent	0	0.538
sub-23990	incongruent	1	0.615
sub-23990	incongruent	0	0.664
sub-23990	incongruent	0	0.761
sub-23990	congruent	1	0.756
sub-23990	incongruent	1	0.538
sub-23990	incongruent	1	0.654
sub-23990	incongruent	1	0.666
sub-23990	incongruent	1	0.855
sub-23990	incongruent	1	0.654
sub-23990	incongruent	0	0.455
sub-23990	congruent	1	0.418
sub-23990	incongruent	1	0.535
sub-23990	congruent	1	0.532
sub-23990	congruent	1	0.477
sub-23990	congruent	1	0.529
sub-23990	congruent	0	0.323
sub-23990	congruent	1	0.541
sub-23990	congruent	1	0.371
sub-23990	congruent	1	0.683
sub-23990	congruent	1	0.629
sub-23990	incongruent	0	0.572
sub-23990	incongruent	0	0.596
sub-23990	congruent	1	0.501
sub-23990	incongruent	1	0.641
sub-23990	incongruent	0	0.417
sub-23990	congruent	1	0.429
sub-23990	congruent	1	0.426
sub-23990	congruent	1	0.485
sub-23990	congruent	1	0.428
sub-23990	incongruent	1	0.559
sub-23990	incongruent	0	0.311
