participant_id	trial_type	stop_signal_delay	go_reaction_time	correct_go	successful_stop
sub-24244	Stop	0.750	0.000	0	1
sub-24244	Go	n/a	0.000	0	n/a
sub-24244	Go	n/a	0.675	1	n/a
sub-24244	Stop	0.700	0.000	0	0
sub-24244	Stop	0.750	0.000	0	0
sub-24244	Go	n/a	0.000	0	n/a
sub-24244	Go	n/a	0.761	1	n/a
sub-24244	Stop	0.800	0.000	0	0
sub-24244	Go	n/a	0.000	0	n/a
sub-24244	Go	n/a	0.650	1	n/a
sub-24244	Go	n/a	0.458	0	n/a
sub-24244	Go	n/a	0.445	1	n/a
sub-24244	Stop	0.850	0.000	0	0
sub-24244	Stop	0.900	0.000	0	0
sub-24244	Go	n/a	0.607	1	n/a
sub-24244	Go	n/a	0.521	1	n/a
sub-24244	Go	n/a	0.654	1	n/a
sub-24244	Stop	0.750	0.000	0	0
sub-24244	Go	n/a	0.779	1	n/a
sub-24244	Stop	0.800	0.000	0	0
sub-24244	Go	n/a	0.872	1	n/a
sub-24244	Go	n/a	0.486	1	n/a
sub-24244	Go	n/a	0.443	1	n/a
sub-24244	Go	n/a	0.414	1	n/a
sub-24244	Go	n/a	0.482	1	n/a
sub-24244	Go	n/a	0.385	1	n/a
sub-24244	Go	n/a	0.364	1	n/a
sub-24244	Go	n/a	0.392	1	n/a
sub-24244	Go	n/a	0.547	1	n/a
sub-24244	Go	n/a	0.574	1	n/a
sub-24244	Go	n/a	0.549	1	n/a
sub-24244	Stop	0.850	0.000	0	0
sub-24244	Go	n/a	0.671	1	n/a
sub-24244	Stop	0.900	0.000	0	0
sub-24244	Go	n/a	0.705	1	n/a
sub-24244	Stop	0.950	0.000	0	0
sub-24244	Go	n/a	0.926	1	n/a
sub-24244	Go	n/a	0.533	1	n/a
sub-24244	Go	n/a	0.711	1	n/a
sub-24244	Stop	1.000	0.000	0	0
sub-24244	Go	n/a	0.730	1	n/a
sub-24244	Stop	1.000	0.000	0	1
sub-24244	Stop	0.950	0.000	0	0
sub-24244	Go	n/a	0.762	1	n/a
sub-24244	Stop	1.000	0.000	0	1
sub-24244	Go	n/a	0.541	1	n/a
sub-24244	Go	n/a	0.593	0	n/a
sub-24244	Go	n/a	0.539	1	n/a
sub-24244	Stop	0.950	0.000	0	1
sub-24244	Stop	0.900	0.000	0	0
sub-24244	Stop	0.950	0.000	0	1
sub-24244	Go	n/a	0.811	1	n/a
sub-24244	Go	n/a	0.529	1	n/a
sub-24244	Stop	0.900	0.000	0	1
sub-24244	Go	n/a	0.895	1	n/a
sub-24244	Stop	0.850	0.000	0	1
sub-24244	Go	n/a	0.694	1	n/a
sub-24244	Go	n/a	0.000	0	n/a
sub-24244	Go	n/a	0.000	0	n/a
sub-24244	Stop	0.800	0.000	0	0
sub-24244	Stop	0.850	0.000	0	1
sub-24244	Go	n/a	0.905	1	n/a
sub-24244	Go	n/a	0.724	1	n/a
sub-24244	Go	n/a	0.610	1	n/a
sub-24244	Go	n/a	0.634	0	n/a
sub-24244	Go	n/a	0.776	1	n/a
sub-24244	Go	n/a	0.574	1	n/a
sub-24244	Go	n/a	0.000	0	n/a
sub-24244	Stop	0.800	0.000	0	0
sub-24244	Go	n/a	0.000	0	n/a
sub-24244	Go	n/a	0.538	1	n/a
sub-24244	Go	n/a	0.716	1	n/a
sub-24244	Go	n/a	0.674	1	n/a
sub-24244	Go	n/a	0.000	0	n/a
sub-24244	Go	n/a	0.503	1	n/a
sub-24244	Stop	0.850	0.000	0	1
sub-24244	Go	n/a	0.571	1	n/a
sub-24244	Go	n/a	0.863	1	n/a
sub-24244	Go	n/a	0.000	0	n/a
sub-24244	Go	n/a	0.590	1	n/a
sub-24244	Go	n/a	0.457	0	n/a
sub-24244	Go	n/a	0.672	1	n/a
sub-24244	Go	n/a	0.733	1	n/a
sub-24244	Go	n/a	0.000	0	n/a
sub-24244	Go	n/a	0.000	0	n/a
sub-24244	Go	n/a	0.754	1	n/a
sub-24244	Go	n/a	0.928	1	n/a
sub-24244	Go	n/a	0.630	1	n/a
sub-24244	Go	n/a	0.836	1	n/a
sub-24244	Stop	0.800	0.000	0	0
sub-24244	Go	n/a	0.784	1	n/a
sub-24244	Go	n/a	0.000	0	n/a
sub-24244	Stop	0.850	0.000	0	0
sub-24244	Go	n/a	0.905	1	n/a
sub-24244	Go	n/a	0.911	1	n/a
sub-24244	Go	n/a	0.396	1	n/a
sub-24244	Stop	0.900	0.000	0	1
sub-24244	Go	n/a	0.709	1	n/a
sub-24244	Stop	0.850	0.000	0	0
sub-24244	Go	n/a	0.848	1	n/a
sub-24244	Go	n/a	0.641	1	n/a
sub-24244	Go	n/a	0.781	1	n/a
sub-24244	Go	n/a	0.432	0	n/a
sub-24244	Go	n/a	0.966	1	n/a
sub-24244	Go	n/a	0.819	1	n/a
sub-24244	Stop	0.750	0.000	0	0
sub-24244	Go	n/a	0.589	1	n/a
sub-24244	Go	n/a	0.388	1	n/a
sub-24244	Stop	0.800	0.000	0	0
sub-24244	Go	n/a	0.717	1	n/a
sub-24244	Go	n/a	0.618	1	n/a
sub-24244	Stop	0.850	0.000	0	0
sub-24244	Go	n/a	0.705	1	n/a
sub-24244	Go	n/a	0.458	0	n/a
sub-24244	Go	n/a	0.599	1	n/a
sub-24244	Stop	0.900	0.000	0	1
sub-24244	Go	n/a	0.574	1	n/a
sub-24244	Go	n/a	0.899	1	n/a
sub-24244	Go	n/a	0.597	0	n/a
sub-24244	Go	n/a	0.468	1	n/a
sub-24244	Stop	0.850	0.000	0	0
sub-24244	Go	n/a	0.473	1	n/a
sub-24244	Go	n/a	0.701	1	n/a
sub-24244	Go	n/a	0.607	1	n/a
sub-24244	Stop	0.900	0.000	0	0
sub-24244	Go	n/a	0.000	0	n/a
sub-24244	Go	n/a	0.924	1	n/a
sub-24244	Stop	0.950	0.000	0	1
sub-24244	Go	n/a	0.959	1	n/a
sub-24244	Stop	0.900	0.000	0	0
sub-24244	Stop	0.950	0.000	0	0
sub-24244	Go	n/a	0.804	1	n/a
sub-24244	Go	n/a	0.672	1	n/a
sub-24244	Go	n/a	0.000	0	n/a
sub-24244	Go	n/a	0.219	1	n/a
sub-24244	Stop	1.000	0.000	0	1
sub-24244	Go	n/a	0.499	1	n/a
sub-24244	Go	n/a	0.460	1	n/a
sub-24244	Go	n/a	0.545	1	n/a
sub-24244	Go	n/a	0.439	1	n/a
sub-24244	Go	n/a	0.473	1	n/a
sub-24244	Go	n/a	0.445	0	n/a
sub-24244	Stop	0.950	0.000	0	0
sub-24244	Go	n/a	0.000	0	n/a
sub-24244	Go	n/a	0.464	1	n/a
sub-24244	Go	n/a	0.583	1	n/a
sub-24244	Go	n/a	0.428	0	n/a
sub-24244	Go	n/a	0.664	1	n/a
sub-24244	Go	n/a	0.766	1	n/a
sub-24244	Go	n/a	0.489	0	n/a
sub-24244	Stop	1.000	0.000	0	1
sub-24244	Stop	0.950	0.000	0	1
sub-24244	Stop	0.900	0.000	0	1
sub-24244	Go	n/a	0.222	0	n/a
sub-24244	Go	n/a	0.583	1	n/a
sub-24244	Go	n/a	0.417	1	n/a
sub-24244	Go	n/a	0.593	1	n/a
sub-24244	Stop	0.850	0.000	0	0
sub-24244	Go	n/a	0.549	0	n/a
sub-24244	Go	n/a	0.680	1	n/a
sub-24244	Go	n/a	0.566	1	n/a
sub-24244	Go	n/a	0.546	1	n/a
sub-24244	Go	n/a	0.305	0	n/a
sub-24244	Go	n/a	0.000	0	n/a
sub-24244	Stop	0.900	0.000	0	1
sub-24244	Go	n/a	0.000	0	n/a
sub-24244	Go	n/a	0.788	1	n/a
sub-24244	Stop	0.850	0.000	0	1
sub-24244	Stop	0.800	0.000	0	0
sub-24244	Go	n/a	0.601	1	n/a
sub-24244	Go	n/a	0.684	1	n/a
sub-24244	Stop	0.850	0.000	0	1
sub-24244	Stop	0.800	0.000	0	0
sub-24244	Go	n/a	0.594	1	n/a
sub-24244	Go	n/a	0.000	0	n/a
sub-24244	Go	n/a	0.000	0	n/a
sub-24244	Go	n/a	0.000	0	n/a
sub-24244	Go	n/a	0.538	1	n/a
sub-24244	Stop	0.850	0.000	0	0
sub-24244	Go	n/a	0.652	1	n/a
sub-24244	Go	n/a	0.648	1	n/a
sub-24244	Go	n/a	0.729	1	n/a
sub-24244	Go	n/a	0.683	1	n/a
sub-24244	Go	n/a	0.664	0	n/a
sub-24244	Go	n/a	0.548	1	n/a
sub-24244	Go	n/a	0.963	1	n/a
sub-24244	Go	n/a	0.617	1	n/a
sub-24244	Go	n/a	0.740	1	n/a
sub-24244	Go	n/a	0.000	0	n/a
sub-24244	Go	n/a	0.633	1	n/a
sub-24244	Go	n/a	0.754	0	n/a
sub-24244	Stop	0.900	0.000	0	1
sub-24244	Go	n/a	0.604	1	n/a
sub-24244	Go	n/a	0.573	1	n/a
sub-24244	Go	n/a	0.271	1	n/a
sub-24244	Go	n/a	0.387	1	n/a
sub-24244	Go	n/a	0.283	1	n/a
sub-24244	Go	n/a	0.214	0	n/a
sub-24244	Go	n/a	0.587	1	n/a
sub-24244	Go	n/a	0.334	1	n/a
sub-24244	Stop	0.750	0.000	0	0
sub-24244	Go	n/a	0.675	1	n/a
sub-24244	Go	n/a	0.536	1	n/a
sub-24244	Go	n/a	0.668	1	n/a
sub-24244	Go	n/a	0.702	1	n/a
sub-24244	Go	n/a	0.468	1	n/a
sub-24244	Go	n/a	0.470	1	n/a
sub-24244	Go	n/a	0.000	0	n/a
sub-24244	Go	n/a	0.000	0	n/a
sub-24244	Stop	0.800	0.000	0	0
sub-24244	Go	n/a	0.516	1	n/a
sub-24244	Stop	0.850	0.000	0	0
sub-24244	Go	n/a	0.615	1	n/a
sub-24244	Go	n/a	0.777	1	n/a
sub-24244	Stop	0.900	0.000	0	1
sub-24244	Go	n/a	0.755	0	n/a
sub-24244	Stop	0.850	0.000	0	1
sub-24244	Stop	0.800	0.000	0	0
sub-24244	Go	n/a	0.000	0	n/a
sub-24244	Go	n/a	0.715	1	n/a
sub-24244	Stop	0.850	0.000	0	0
sub-24244	Stop	0.900	0.000	0	0
sub-24244	Go	n/a	0.000	0	n/a
sub-24244	Go	n/a	0.000	0	n/a
sub-24244	Stop	0.950	0.000	0	0
sub-24244	Go	n/a	0.513	1	n/a
sub-24244	Stop	1.000	0.000	0	0
sub-24244	Go	n/a	0.000	0	n/a
sub-24244	Stop	1.000	0.000	0	1
sub-24244	Go	n/a	0.715	1	n/a
sub-24244	Stop	0.950	0.000	0	0
sub-24244	Go	n/a	0.000	0	n/a
sub-24244	Go	n/a	0.800	1	n/a
sub-24244	Go	n/a	0.000	0	n/a
sub-24244	Stop	1.000	0.000	0	1
sub-24244	Go	n/a	0.770	1	n/a
sub-24244	Go	n/a	0.748	1	n/a
sub-24244	Stop	0.950	0.000	0	1
sub-24244	Go	n/a	0.000	0	n/a
sub-24244	Go	n/a	0.877	1	n/a
sub-24244	Go	n/a	0.617	1	n/a
sub-24244	Go	n/a	0.000	0	n/a
sub-24244	Stop	0.900	0.000	0	0
sub-24244	Go	n/a	0.000	0	n/a
sub-24244	Go	n/a	0.837	1	n/a
sub-24244	Stop	0.950	0.000	0	1
sub-24244	Stop	0.900	0.000	0	0
sub-24244	Go	n/a	0.760	1	n/a
sub-24244	Go	n/a	0.755	1	n/a
sub-24244	Go	n/a	0.776	1	n/a
sub-24244	Go	n/a	0.000	0	n/a
sub-24244	Go	n/a	0.505	0	n/a
sub-24244	Stop	0.950	0.000	0	0
sub-24244	Go	n/a	0.979	0	n/a
sub-24244	Go	n/a	0.509	1	n/a
sub-24244	Go	n/a	0.595	1	n/a
sub-24244	Stop	1.000	0.000	0	1
sub-24244	Go	n/a	0.000	0	n/a
sub-24244	Go	n/a	0.000	0	n/a
sub-24244	Go	n/a	0.608	1	n/a
sub-24244	Go	n/a	0.000	0	n/a
sub-24244	Go	n/a	0.000	0	n/a
sub-24244	Go	n/a	0.000	0	n/a
sub-24244	Go	n/a	0.268	1	n/a
sub-24244	Stop	0.950	0.000	0	1
sub-24244	Go	n/a	0.805	1	n/a
sub-24244	Go	n/a	0.680	1	n/a
sub-24244	Go	n/a	0.341	1	n/a
sub-24244	Go	n/a	0.851	1	n/a
sub-24244	Go	n/a	0.600	1	n/a
sub-24244	Stop	0.900	0.000	0	0
sub-24244	Stop	0.950	0.000	0	1
sub-24244	Go	n/a	0.605	0	n/a
sub-24244	Go	n/a	0.000	0	n/a
sub-24244	Go	n/a	0.000	0	n/a
sub-24244	Go	n/a	0.533	1	n/a
sub-24244	Go	n/a	0.000	0	n/a
sub-24244	Go	n/a	0.000	0	n/a
sub-24244	Go	n/a	0.000	0	n/a
sub-24244	Go	n/a	0.000	0	n/a
sub-24244	Go	n/a	0.866	1	n/a
sub-24244	Stop	0.750	0.000	0	0
sub-24244	Go	n/a	0.568	1	n/a
sub-24244	Go	n/a	0.637	1	n/a
sub-24244	Go	n/a	0.592	1	n/a
sub-24244	Go	n/a	0.495	1	n/a
sub-24244	Go	n/a	0.637	0	n/a
sub-24244	Go	n/a	0.000	0	n/a
sub-24244	Go	n/a	0.753	1	n/a
sub-24244	Go	n/a	0.551	1	n/a
sub-24244	Stop	0.800	0.000	0	0
sub-24244	Go	n/a	0.000	0	n/a
sub-24244	Go	n/a	0.000	0	n/a
sub-24244	Go	n/a	0.594	1	n/a
sub-24244	Stop	0.850	0.000	0	0
sub-24244	Stop	0.900	0.000	0	0
sub-24244	Go	n/a	0.675	1	n/a
sub-24244	Go	n/a	0.363	1	n/a
sub-24244	Go	n/a	0.512	1	n/a
sub-24244	Go	n/a	0.731	1	n/a
sub-24244	Stop	0.950	0.000	0	1
sub-24244	Go	n/a	0.642	1	n/a
sub-24244	Go	n/a	0.560	0	n/a
sub-24244	Go	n/a	0.958	1	n/a
sub-24244	Go	n/a	0.820	1	n/a
sub-24244	Go	n/a	0.660	1	n/a
sub-24244	Go	n/a	0.000	0	n/a
sub-24244	Go	n/a	0.360	1	n/a
sub-24244	Stop	0.900	0.000	0	0
sub-24244	Stop	0.950	0.000	0	1
sub-24244	Stop	0.900	0.000	0	0
sub-24244	Stop	0.950	0.000	0	0
sub-24244	Go	n/a	0.000	0	n/a
sub-24244	Go	n/a	0.807	1	n/a
sub-24244	Stop	1.000	0.000	0	0
sub-24244	Go	n/a	0.608	1	n/a
sub-24244	Stop	1.000	0.000	0	1
sub-24244	Go	n/a	0.708	1	n/a
sub-24244	Go	n/a	0.499	1	n/a
sub-24244	Go	n/a	0.496	1	n/a
sub-24244	Go	n/a	0.505	1	n/a
sub-24244	Go	n/a	0.480	0	n/a
sub-24244	Go	n/a	0.541	1	n/a
sub-24244	Go	n/a	0.653	1	n/a
sub-24244	Go	n/a	0.633	1	n/a
sub-24244	Go	n/a	0.854	0	n/a
sub-24244	Stop	0.950	0.000	0	0
sub-24244	Go	n/a	0.000	0	n/a
sub-24244	Go	n/a	0.505	1	n/a
sub-24244	Go	n/a	0.739	1	n/a
sub-24244	Go	n/a	0.627	1	n/a
sub-24244	Go	n/a	0.000	0	n/a
sub-24244	Stop	1.000	0.000	0	1
sub-24244	Go	n/a	0.619	1	n/a
sub-24244	Stop	0.950	0.000	0	0
sub-24244	Stop	1.000	0.000	0	1
sub-24244	Go	n/a	0.525	1	n/a
sub-24244	Go	n/a	0.611	1	n/a
sub-24244	Stop	0.950	0.000	0	1
sub-24244	Go	n/a	0.565	1	n/a
sub-24244	Go	n/a	0.599	1	n/a
sub-24244	Go	n/a	0.864	1	n/a
sub-24244	Go	n/a	0.674	1	n/a
sub-24244	Go	n/a	0.769	0	n/a
sub-24244	Go	n/a	0.721	0	n/a
sub-24244	Stop	0.900	0.000	0	0
sub-24244	Go	n/a	0.665	1	n/a
sub-24244	Go	n/a	0.276	0	n/a
sub-24244	Go	n/a	0.791	1	n/a
sub-24244	Go	n/a	0.689	1	n/a
sub-24244	Go	n/a	0.330	1	n/a
sub-24244	Stop	0.950	0.000	0	1
sub-24244	Go	n/a	0.844	1	n/a
sub-24244	Stop	0.900	0.000	0	1
sub-24244	Go	n/a	0.758	1	n/a
sub-24244	Stop	0.850	0.000	0	0
sub-24244	Go	n/a	0.874	1	n/a
sub-24244	Go	n/a	0.966	1	n/a
sub-24244	Go	n/a	0.740	1	n/a
sub-24244	Go	n/a	0.788	1	n/a
sub-24244	Go	n/a	0.000	0	n/a
sub-24244	Go	n/a	0.971	0	n/a
sub-24244	Go	n/a	0.735	1	n/a
sub-24244	Go	n/a	0.698	1	n/a
sub-24244	Stop	0.900	0.000	0	1
sub-24244	Go	n/a	0.992	1	n/a
sub-24244	Stop	0.850	0.000	0	1
sub-24244	Go	n/a	0.000	0	n/a
sub-24244	Stop	0.750	0.000	0	0
sub-24244	Stop	0.800	0.000	0	0
sub-24244	Stop	0.850	0.000	0	0
sub-24244	Stop	0.900	0.000	0	1
sub-24244	Go	n/a	0.635	1	n/a
sub-24244	Go	n/a	0.344	1	n/a
sub-24244	Go	n/a	0.467	1	n/a
sub-24244	Go	n/a	0.395	1	n/a
sub-24244	Stop	0.850	0.000	0	0
sub-24244	Go	n/a	0.747	1	n/a
sub-24244	Go	n/a	0.389	1	n/a
sub-24244	Go	n/a	0.422	1	n/a
sub-24244	Go	n/a	0.458	1	n/a
sub-24244	Go	n/a	0.536	1	n/a
sub-24244	Go	n/a	0.762	1	n/a
sub-24244	Go	n/a	0.637	0	n/a
sub-24244	Stop	0.900	0.000	0	1
sub-24244	Go	n/a	0.000	0	n/a
sub-24244	Go	n/a	0.000	0	n/a
sub-24244	Go	n/a	0.782	1	n/a
sub-24244	Go	n/a	0.456	0	n/a
sub-24244	Go	n/a	0.372	1	n/a
sub-24244	Go	n/a	0.292	0	n/a
sub-24244	Stop	0.850	0.000	0	1
sub-24244	Go	n/a	0.602	1	n/a
sub-24244	Go	n/a	0.673	1	n/a
sub-24244	Stop	0.800	0.000	0	0
sub-24244	Go	n/a	0.605	1	n/a
sub-24244	Go	n/a	0.765	1	n/a
sub-24244	Go	n/a	0.000	0	n/a
sub-24244	Stop	0.850	0.000	0	1
sub-24244	Go	n/a	0.575	1	n/a
sub-24244	Go	n/a	0.000	0	n/a
sub-24244	Go	n/a	0.437	1	n/a
sub-24244	Go	n/a	0.000	0	n/a
sub-24244	Go	n/a	0.494	1	n/a
sub-24244	Go	n/a	0.000	0	n/a
sub-24244	Go	n/a	0.000	0	n/a
sub-24244	Go	n/a	0.000	0	n/a
sub-24244	Go	n/a	0.552	1	n/a
sub-24244	Go	n/a	0.000	0	n/a
sub-24244	Go	n/a	0.789	1	n/a
sub-24244	Go	n/a	0.626	1	n/a
sub-24244	Go	n/a	0.991	1	n/a
sub-24244	Go	n/a	0.369	0	n/a
sub-24244	Go	n/a	0.517	1	n/a
sub-24244	Go	n/a	0.712	1	n/a
sub-24244	Go	n/a	0.703	1	n/a
sub-24244	Stop	0.800	0.000	0	0
sub-24244	Go	n/a	0.988	1	n/a
sub-24244	Stop	0.850	0.000	0	0
sub-24244	Stop	0.900	0.000	0	0
sub-24244	Go	n/a	0.774	1	n/a
sub-24244	Stop	0.950	0.000	0	0
sub-24244	Go	n/a	0.000	0	n/a
sub-24244	Stop	1.000	0.000	0	1
sub-24244	Go	n/a	0.000	0	n/a
sub-24244	Stop	0.950	0.000	0	1
sub-24244	Go	n/a	0.000	0	n/a
sub-24244	Stop	0.900	0.000	0	1
sub-24244	Go	n/a	0.000	0	n/a
sub-24244	Go	n/a	0.000	0	n/a
sub-24244	Go	n/a	0.419	1	n/a
sub-24244	Go	n/a	0.000	0	n/a
sub-24244	Go	n/a	0.000	0	n/a
sub-24244	Go	n/a	0.881	1	n/a
sub-24244	Go	n/a	0.000	0	n/a
sub-24244	Go	n/a	0.000	0	n/a
sub-24244	Go	n/a	0.000	0	n/a
sub-24244	Stop	0.850	0.000	0	1
sub-24244	Go	n/a	0.000	0	n/a
sub-24244	Go	n/a	0.691	1	n/a
sub-24244	Go	n/a	0.284	1	n/a
sub-24244	Go	n/a	0.615	1	n/a
sub-24244	Stop	0.800	0.000	0	0
sub-24244	Go	n/a	0.613	1	n/a
sub-24244	Go	n/a	0.605	1	n/a
sub-24244	Go	n/a	0.247	1	n/a
sub-24244	Go	n/a	0.616	1	n/a
sub-24244	Go	n/a	0.412	0	n/a
sub-24244	Go	n/a	0.890	1	n/a
sub-24244	Stop	0.850	0.000	0	0
sub-24244	Stop	0.900	0.000	0	1
sub-24244	Go	n/a	0.068	0	n/a
sub-24244	Stop	0.850	0.000	0	1
sub-24244	Stop	0.800	0.000	0	0
sub-24244	Go	n/a	0.620	1	n/a
sub-24244	Go	n/a	0.340	1	n/a
