onset	duration	startTime	stopTime	eventIdentifier	trial_type	trial_number	block_number	is_practice	fixation_color	cue_side	aoi_correct	aoi_incorrect
0.143	2.0	14026144	14028171	ShowFixation	VGS	1	1	True	lime	460	[1035 1515  405  675]	[405 885 405 675]
2.17	0.2	14028171	14028406	BlankScreen	VGS	1	1	True	lime	460	[1035 1515  405  675]	[405 885 405 675]
2.405	1.0	14028406	14029447	ELCue	VGS	1	1	True	lime	460	[1035 1515  405  675]	[405 885 405 675]
3.848	2.0	14029849	14032492	ShowFixation	ANTI	2	1	True	red	460	[405 885 405 675]	[1035 1515  405  675]
6.491	0.2	14032492	14032727	BlankScreen	ANTI	2	1	True	red	460	[405 885 405 675]	[1035 1515  405  675]
6.726	1.0	14032727	14033767	ELCue	ANTI	2	1	True	red	460	[405 885 405 675]	[1035 1515  405  675]
8.167	2.0	14034168	14036796	ShowFixation	VGS	3	1	True	lime	180	[405 885 405 675]	[1035 1515  405  675]
10.795	0.2	14036796	14037015	BlankScreen	VGS	3	1	True	lime	180	[405 885 405 675]	[1035 1515  405  675]
11.014	1.0	14037015	14038038	ELCue	VGS	3	1	True	lime	180	[405 885 405 675]	[1035 1515  405  675]
12.441	2.0	14038442	14041084	ShowFixation	ANTI	4	1	True	red	600	[ 90 570 405 675]	[1350 1830  405  675]
15.083	0.2	14041084	14041319	BlankScreen	ANTI	4	1	True	red	600	[ 90 570 405 675]	[1350 1830  405  675]
15.318	1.0	14041319	14042360	ELCue	ANTI	4	1	True	red	600	[ 90 570 405 675]	[1350 1830  405  675]
16.759	2.0	14042760	14045405	ShowFixation	VGS	5	1	True	lime	40	[ 90 570 405 675]	[1350 1830  405  675]
19.404	0.2	14045405	14045640	BlankScreen	VGS	5	1	True	lime	40	[ 90 570 405 675]	[1350 1830  405  675]
19.639	1.0	14045640	14046681	ELCue	VGS	5	1	True	lime	40	[ 90 570 405 675]	[1350 1830  405  675]
21.075	2.0	14047076	14049726	ShowFixation	ANTI	6	1	True	red	180	[1035 1515  405  675]	[405 885 405 675]
23.725	0.2	14049726	14049961	BlankScreen	ANTI	6	1	True	red	180	[1035 1515  405  675]	[405 885 405 675]
23.96	1.0	14049961	14051001	ELCue	ANTI	6	1	True	red	180	[1035 1515  405  675]	[405 885 405 675]
25.386	6.0	14051387	14058047	ShowFixation	VGS	7	1	True	lime	40	[ 90 570 405 675]	[1350 1830  405  675]
32.046	0.2	14058047	14058286	BlankScreen	VGS	7	1	True	lime	40	[ 90 570 405 675]	[1350 1830  405  675]
32.285	1.0	14058286	14059326	ELCue	VGS	7	1	True	lime	40	[ 90 570 405 675]	[1350 1830  405  675]
33.729	6.0	14059730	14066371	ShowFixation	VGS	8	1	True	lime	600	[1350 1830  405  675]	[ 90 570 405 675]
40.37	0.2	14066371	14066611	BlankScreen	VGS	8	1	True	lime	600	[1350 1830  405  675]	[ 90 570 405 675]
40.61	1.0	14066611	14067651	ELCue	VGS	8	1	True	lime	600	[1350 1830  405  675]	[ 90 570 405 675]
42.058	6.0	14068059	14074680	ShowFixation	ANTI	9	1	True	red	180	[1035 1515  405  675]	[405 885 405 675]
48.679	0.2	14074680	14074919	BlankScreen	ANTI	9	1	True	red	180	[1035 1515  405  675]	[405 885 405 675]
48.918	1.0	14074919	14075960	ELCue	ANTI	9	1	True	red	180	[1035 1515  405  675]	[405 885 405 675]
50.361	2.0	14076362	14079004	ShowFixation	ANTI	10	1	True	red	40	[1350 1830  405  675]	[ 90 570 405 675]
53.003	0.2	14079004	14079240	BlankScreen	ANTI	10	1	True	red	40	[1350 1830  405  675]	[ 90 570 405 675]
53.239	1.0	14079240	14080280	ELCue	ANTI	10	1	True	red	40	[1350 1830  405  675]	[ 90 570 405 675]
54.682	6.0	14080683	14087309	ShowFixation	VGS	11	1	True	lime	180	[405 885 405 675]	[1035 1515  405  675]
61.308	0.2	14087309	14087548	BlankScreen	VGS	11	1	True	lime	180	[405 885 405 675]	[1035 1515  405  675]
61.547	1.0	14087548	14088589	ELCue	VGS	11	1	True	lime	180	[405 885 405 675]	[1035 1515  405  675]
62.993	6.0	14088994	14095634	ShowFixation	ANTI	12	1	True	red	460	[405 885 405 675]	[1035 1515  405  675]
69.633	0.2	14095634	14095873	BlankScreen	ANTI	12	1	True	red	460	[405 885 405 675]	[1035 1515  405  675]
69.872	1.0	14095873	14096914	ELCue	ANTI	12	1	True	red	460	[405 885 405 675]	[1035 1515  405  675]
71.301	6.0	14097302	14103958	ShowFixation	VGS	13	1	True	lime	460	[1035 1515  405  675]	[405 885 405 675]
77.957	0.2	14103958	14104198	BlankScreen	VGS	13	1	True	lime	460	[1035 1515  405  675]	[405 885 405 675]
78.197	1.0	14104198	14105239	ELCue	VGS	13	1	True	lime	460	[1035 1515  405  675]	[405 885 405 675]
79.64	6.0	14105641	14112267	ShowFixation	ANTI	14	1	True	red	40	[1350 1830  405  675]	[ 90 570 405 675]
86.267	0.2	14112268	14112506	BlankScreen	ANTI	14	1	True	red	40	[1350 1830  405  675]	[ 90 570 405 675]
86.506	1.0	14112507	14113547	ELCue	ANTI	14	1	True	red	40	[1350 1830  405  675]	[ 90 570 405 675]
87.949	6.0	14113950	14120592	ShowFixation	ANTI	15	1	True	red	600	[ 90 570 405 675]	[1350 1830  405  675]
94.592	0.2	14120593	14120832	BlankScreen	ANTI	15	1	True	red	600	[ 90 570 405 675]	[1350 1830  405  675]
94.831	1.0	14120832	14121872	ELCue	ANTI	15	1	True	red	600	[ 90 570 405 675]	[1350 1830  405  675]
96.275	2.0	14122276	14124916	ShowFixation	VGS	16	1	True	lime	600	[1350 1830  405  675]	[ 90 570 405 675]
98.916	0.2	14124917	14125153	BlankScreen	VGS	16	1	True	lime	600	[1350 1830  405  675]	[ 90 570 405 675]
99.152	1.0	14125153	14126192	ELCue	VGS	16	1	True	lime	600	[1350 1830  405  675]	[ 90 570 405 675]
122.786	2.0	14148787	14150826	ShowFixation	ANTI	17	2	False	red	180	[1035 1515  405  675]	[405 885 405 675]
124.825	0.2	14150826	14151062	BlankScreen	ANTI	17	2	False	red	180	[1035 1515  405  675]	[405 885 405 675]
125.061	1.0	14151062	14152062	ELCue	ANTI	17	2	False	red	180	[1035 1515  405  675]	[405 885 405 675]
126.45	6.0	14152451	14158480	ShowFixation	ANTI	18	2	False	red	40	[1350 1830  405  675]	[ 90 570 405 675]
132.479	0.2	14158480	14158719	BlankScreen	ANTI	18	2	False	red	40	[1350 1830  405  675]	[ 90 570 405 675]
132.718	1.0	14158719	14159719	ELCue	ANTI	18	2	False	red	40	[1350 1830  405  675]	[ 90 570 405 675]
134.124	2.0	14160125	14162154	ShowFixation	VGS	19	2	False	lime	460	[1035 1515  405  675]	[405 885 405 675]
136.153	0.2	14162154	14162390	BlankScreen	VGS	19	2	False	lime	460	[1035 1515  405  675]	[405 885 405 675]
136.389	1.0	14162390	14163390	ELCue	VGS	19	2	False	lime	460	[1035 1515  405  675]	[405 885 405 675]
137.794	6.0	14163795	14169824	ShowFixation	ANTI	20	2	False	red	180	[1035 1515  405  675]	[405 885 405 675]
143.823	0.2	14169824	14170064	BlankScreen	ANTI	20	2	False	red	180	[1035 1515  405  675]	[405 885 405 675]
144.063	1.0	14170064	14171064	ELCue	ANTI	20	2	False	red	180	[1035 1515  405  675]	[405 885 405 675]
145.469	6.0	14171470	14177499	ShowFixation	VGS	21	2	False	lime	180	[405 885 405 675]	[1035 1515  405  675]
151.498	0.2	14177499	14177738	BlankScreen	VGS	21	2	False	lime	180	[405 885 405 675]	[1035 1515  405  675]
151.737	1.0	14177738	14178738	ELCue	VGS	21	2	False	lime	180	[405 885 405 675]	[1035 1515  405  675]
153.15	6.0	14179151	14185190	ShowFixation	VGS	22	2	False	lime	460	[1035 1515  405  675]	[405 885 405 675]
159.189	0.2	14185190	14185429	BlankScreen	VGS	22	2	False	lime	460	[1035 1515  405  675]	[405 885 405 675]
159.428	1.0	14185429	14186429	ELCue	VGS	22	2	False	lime	460	[1035 1515  405  675]	[405 885 405 675]
160.823	2.0	14186824	14188864	ShowFixation	VGS	23	2	False	lime	40	[ 90 570 405 675]	[1350 1830  405  675]
162.863	0.2	14188864	14189099	BlankScreen	VGS	23	2	False	lime	40	[ 90 570 405 675]	[1350 1830  405  675]
163.098	1.0	14189099	14190099	ELCue	VGS	23	2	False	lime	40	[ 90 570 405 675]	[1350 1830  405  675]
164.471	6.0	14190472	14196501	ShowFixation	ANTI	24	2	False	red	460	[405 885 405 675]	[1035 1515  405  675]
170.5	0.2	14196501	14196740	BlankScreen	ANTI	24	2	False	red	460	[405 885 405 675]	[1035 1515  405  675]
170.739	1.0	14196740	14197740	ELCue	ANTI	24	2	False	red	460	[405 885 405 675]	[1035 1515  405  675]
172.148	2.0	14198149	14200175	ShowFixation	ANTI	25	2	False	red	180	[1035 1515  405  675]	[405 885 405 675]
174.174	0.2	14200175	14200410	BlankScreen	ANTI	25	2	False	red	180	[1035 1515  405  675]	[405 885 405 675]
174.409	1.0	14200410	14201410	ELCue	ANTI	25	2	False	red	180	[1035 1515  405  675]	[405 885 405 675]
175.815	2.0	14201816	14203845	ShowFixation	VGS	26	2	False	lime	180	[405 885 405 675]	[1035 1515  405  675]
177.844	0.2	14203845	14204081	BlankScreen	VGS	26	2	False	lime	180	[405 885 405 675]	[1035 1515  405  675]
178.08	1.0	14204081	14205081	ELCue	VGS	26	2	False	lime	180	[405 885 405 675]	[1035 1515  405  675]
179.458	6.0	14205459	14211500	ShowFixation	VGS	27	2	False	lime	460	[1035 1515  405  675]	[405 885 405 675]
185.499	0.2	14211500	14211738	BlankScreen	VGS	27	2	False	lime	460	[1035 1515  405  675]	[405 885 405 675]
185.737	1.0	14211738	14212738	ELCue	VGS	27	2	False	lime	460	[1035 1515  405  675]	[405 885 405 675]
187.147	2.0	14213148	14215173	ShowFixation	VGS	28	2	False	lime	40	[ 90 570 405 675]	[1350 1830  405  675]
189.172	0.2	14215173	14215409	BlankScreen	VGS	28	2	False	lime	40	[ 90 570 405 675]	[1350 1830  405  675]
189.408	1.0	14215409	14216409	ELCue	VGS	28	2	False	lime	40	[ 90 570 405 675]	[1350 1830  405  675]
190.931	6.0	14216932	14222960	ShowFixation	VGS	29	2	False	lime	600	[1350 1830  405  675]	[ 90 570 405 675]
196.959	0.2	14222960	14223200	BlankScreen	VGS	29	2	False	lime	600	[1350 1830  405  675]	[ 90 570 405 675]
197.199	1.0	14223200	14224200	ELCue	VGS	29	2	False	lime	600	[1350 1830  405  675]	[ 90 570 405 675]
198.609	2.0	14224610	14226634	ShowFixation	VGS	30	2	False	lime	600	[1350 1830  405  675]	[ 90 570 405 675]
200.633	0.2	14226634	14226870	BlankScreen	VGS	30	2	False	lime	600	[1350 1830  405  675]	[ 90 570 405 675]
200.87	1.0	14226871	14227871	ELCue	VGS	30	2	False	lime	600	[1350 1830  405  675]	[ 90 570 405 675]
202.279	2.0	14228280	14230305	ShowFixation	VGS	31	2	False	lime	600	[1350 1830  405  675]	[ 90 570 405 675]
204.304	0.2	14230305	14230540	BlankScreen	VGS	31	2	False	lime	600	[1350 1830  405  675]	[ 90 570 405 675]
204.539	1.0	14230540	14231540	ELCue	VGS	31	2	False	lime	600	[1350 1830  405  675]	[ 90 570 405 675]
205.95	6.0	14231951	14237992	ShowFixation	ANTI	32	2	False	red	600	[ 90 570 405 675]	[1350 1830  405  675]
211.992	0.2	14237993	14238232	BlankScreen	ANTI	32	2	False	red	600	[ 90 570 405 675]	[1350 1830  405  675]
212.231	1.0	14238232	14239232	ELCue	ANTI	32	2	False	red	600	[ 90 570 405 675]	[1350 1830  405  675]
213.635	6.0	14239636	14245666	ShowFixation	VGS	33	2	False	lime	600	[1350 1830  405  675]	[ 90 570 405 675]
219.665	0.2	14245666	14245906	BlankScreen	VGS	33	2	False	lime	600	[1350 1830  405  675]	[ 90 570 405 675]
219.905	1.0	14245906	14246906	ELCue	VGS	33	2	False	lime	600	[1350 1830  405  675]	[ 90 570 405 675]
221.312	2.0	14247313	14249341	ShowFixation	VGS	34	2	False	lime	460	[1035 1515  405  675]	[405 885 405 675]
223.34	0.2	14249341	14249577	BlankScreen	VGS	34	2	False	lime	460	[1035 1515  405  675]	[405 885 405 675]
223.576	1.0	14249577	14250577	ELCue	VGS	34	2	False	lime	460	[1035 1515  405  675]	[405 885 405 675]
224.982	2.0	14250983	14253012	ShowFixation	VGS	35	2	False	lime	180	[405 885 405 675]	[1035 1515  405  675]
227.011	0.2	14253012	14253247	BlankScreen	VGS	35	2	False	lime	180	[405 885 405 675]	[1035 1515  405  675]
227.246	1.0	14253247	14254247	ELCue	VGS	35	2	False	lime	180	[405 885 405 675]	[1035 1515  405  675]
228.646	6.0	14254647	14260682	ShowFixation	VGS	36	2	False	lime	180	[405 885 405 675]	[1035 1515  405  675]
234.681	0.2	14260682	14260921	BlankScreen	VGS	36	2	False	lime	180	[405 885 405 675]	[1035 1515  405  675]
234.92	1.0	14260921	14261921	ELCue	VGS	36	2	False	lime	180	[405 885 405 675]	[1035 1515  405  675]
236.325	6.0	14262326	14268356	ShowFixation	VGS	37	2	False	lime	40	[ 90 570 405 675]	[1350 1830  405  675]
242.355	0.2	14268356	14268595	BlankScreen	VGS	37	2	False	lime	40	[ 90 570 405 675]	[1350 1830  405  675]
242.594	1.0	14268595	14269595	ELCue	VGS	37	2	False	lime	40	[ 90 570 405 675]	[1350 1830  405  675]
243.977	2.0	14269978	14272014	ShowFixation	ANTI	38	2	False	red	460	[405 885 405 675]	[1035 1515  405  675]
246.013	0.2	14272014	14272249	BlankScreen	ANTI	38	2	False	red	460	[405 885 405 675]	[1035 1515  405  675]
246.248	1.0	14272249	14273249	ELCue	ANTI	38	2	False	red	460	[405 885 405 675]	[1035 1515  405  675]
247.636	2.0	14273637	14275667	ShowFixation	ANTI	39	2	False	red	40	[1350 1830  405  675]	[ 90 570 405 675]
249.666	0.2	14275667	14275903	BlankScreen	ANTI	39	2	False	red	40	[1350 1830  405  675]	[ 90 570 405 675]
249.902	1.0	14275903	14276903	ELCue	ANTI	39	2	False	red	40	[1350 1830  405  675]	[ 90 570 405 675]
251.31	2.0	14277311	14279338	ShowFixation	ANTI	40	2	False	red	600	[ 90 570 405 675]	[1350 1830  405  675]
253.337	0.2	14279338	14279573	BlankScreen	ANTI	40	2	False	red	600	[ 90 570 405 675]	[1350 1830  405  675]
253.572	1.0	14279573	14280573	ELCue	ANTI	40	2	False	red	600	[ 90 570 405 675]	[1350 1830  405  675]
254.976	6.0	14280977	14287008	ShowFixation	VGS	41	2	False	lime	40	[ 90 570 405 675]	[1350 1830  405  675]
261.007	0.2	14287008	14287247	BlankScreen	VGS	41	2	False	lime	40	[ 90 570 405 675]	[1350 1830  405  675]
261.246	1.0	14287247	14288247	ELCue	VGS	41	2	False	lime	40	[ 90 570 405 675]	[1350 1830  405  675]
262.648	6.0	14288649	14294682	ShowFixation	ANTI	42	2	False	red	460	[405 885 405 675]	[1035 1515  405  675]
268.681	0.2	14294682	14294921	BlankScreen	ANTI	42	2	False	red	460	[405 885 405 675]	[1035 1515  405  675]
268.92	1.0	14294921	14295921	ELCue	ANTI	42	2	False	red	460	[405 885 405 675]	[1035 1515  405  675]
270.329	6.0	14296330	14302356	ShowFixation	ANTI	43	2	False	red	180	[1035 1515  405  675]	[405 885 405 675]
276.355	0.2	14302356	14302596	BlankScreen	ANTI	43	2	False	red	180	[1035 1515  405  675]	[405 885 405 675]
276.595	1.0	14302596	14303596	ELCue	ANTI	43	2	False	red	180	[1035 1515  405  675]	[405 885 405 675]
277.985	2.0	14303986	14306014	ShowFixation	ANTI	44	2	False	red	40	[1350 1830  405  675]	[ 90 570 405 675]
280.013	0.2	14306014	14306249	BlankScreen	ANTI	44	2	False	red	40	[1350 1830  405  675]	[ 90 570 405 675]
280.248	1.0	14306249	14307249	ELCue	ANTI	44	2	False	red	40	[1350 1830  405  675]	[ 90 570 405 675]
281.658	6.0	14307659	14313684	ShowFixation	ANTI	45	2	False	red	600	[ 90 570 405 675]	[1350 1830  405  675]
287.683	0.2	14313684	14313923	BlankScreen	ANTI	45	2	False	red	600	[ 90 570 405 675]	[1350 1830  405  675]
287.922	1.0	14313923	14314923	ELCue	ANTI	45	2	False	red	600	[ 90 570 405 675]	[1350 1830  405  675]
289.327	2.0	14315328	14317358	ShowFixation	ANTI	46	2	False	red	600	[ 90 570 405 675]	[1350 1830  405  675]
291.357	0.2	14317358	14317594	BlankScreen	ANTI	46	2	False	red	600	[ 90 570 405 675]	[1350 1830  405  675]
291.593	1.0	14317594	14318594	ELCue	ANTI	46	2	False	red	600	[ 90 570 405 675]	[1350 1830  405  675]
292.998	6.0	14318999	14325029	ShowFixation	ANTI	47	2	False	red	40	[1350 1830  405  675]	[ 90 570 405 675]
299.028	0.2	14325029	14325268	BlankScreen	ANTI	47	2	False	red	40	[1350 1830  405  675]	[ 90 570 405 675]
299.267	1.0	14325268	14326268	ELCue	ANTI	47	2	False	red	40	[1350 1830  405  675]	[ 90 570 405 675]
300.676	2.0	14326677	14328703	ShowFixation	ANTI	48	2	False	red	460	[405 885 405 675]	[1035 1515  405  675]
302.702	0.2	14328703	14328938	BlankScreen	ANTI	48	2	False	red	460	[405 885 405 675]	[1035 1515  405  675]
302.937	1.0	14328938	14329938	ELCue	ANTI	48	2	False	red	460	[405 885 405 675]	[1035 1515  405  675]
322.527	2.0	14348528	14350558	ShowFixation	ANTI	49	3	False	red	600	[ 90 570 405 675]	[1350 1830  405  675]
324.557	0.2	14350558	14350793	BlankScreen	ANTI	49	3	False	red	600	[ 90 570 405 675]	[1350 1830  405  675]
324.792	1.0	14350793	14351793	ELCue	ANTI	49	3	False	red	600	[ 90 570 405 675]	[1350 1830  405  675]
326.2	2.0	14352201	14354228	ShowFixation	ANTI	50	3	False	red	40	[1350 1830  405  675]	[ 90 570 405 675]
328.228	0.2	14354229	14354464	BlankScreen	ANTI	50	3	False	red	40	[1350 1830  405  675]	[ 90 570 405 675]
328.463	1.0	14354464	14355464	ELCue	ANTI	50	3	False	red	40	[1350 1830  405  675]	[ 90 570 405 675]
329.871	6.0	14355872	14361898	ShowFixation	VGS	51	3	False	lime	600	[1350 1830  405  675]	[ 90 570 405 675]
335.898	0.2	14361899	14362139	BlankScreen	VGS	51	3	False	lime	600	[1350 1830  405  675]	[ 90 570 405 675]
336.138	1.0	14362139	14363139	ELCue	VGS	51	3	False	lime	600	[1350 1830  405  675]	[ 90 570 405 675]
337.544	6.0	14363545	14369574	ShowFixation	VGS	52	3	False	lime	180	[405 885 405 675]	[1035 1515  405  675]
343.573	0.2	14369574	14369813	BlankScreen	VGS	52	3	False	lime	180	[405 885 405 675]	[1035 1515  405  675]
343.812	1.0	14369813	14370813	ELCue	VGS	52	3	False	lime	180	[405 885 405 675]	[1035 1515  405  675]
345.217	6.0	14371218	14377248	ShowFixation	VGS	53	3	False	lime	180	[405 885 405 675]	[1035 1515  405  675]
351.247	0.2	14377248	14377487	BlankScreen	VGS	53	3	False	lime	180	[405 885 405 675]	[1035 1515  405  675]
351.486	1.0	14377487	14378487	ELCue	VGS	53	3	False	lime	180	[405 885 405 675]	[1035 1515  405  675]
352.895	2.0	14378896	14380922	ShowFixation	ANTI	54	3	False	red	180	[1035 1515  405  675]	[405 885 405 675]
354.921	0.2	14380922	14381157	BlankScreen	ANTI	54	3	False	red	180	[1035 1515  405  675]	[405 885 405 675]
355.156	1.0	14381157	14382157	ELCue	ANTI	54	3	False	red	180	[1035 1515  405  675]	[405 885 405 675]
356.565	2.0	14382566	14384592	ShowFixation	VGS	55	3	False	lime	600	[1350 1830  405  675]	[ 90 570 405 675]
358.591	0.2	14384592	14384828	BlankScreen	VGS	55	3	False	lime	600	[1350 1830  405  675]	[ 90 570 405 675]
358.827	1.0	14384828	14385828	ELCue	VGS	55	3	False	lime	600	[1350 1830  405  675]	[ 90 570 405 675]
360.231	6.0	14386232	14392263	ShowFixation	VGS	56	3	False	lime	40	[ 90 570 405 675]	[1350 1830  405  675]
366.262	0.2	14392263	14392502	BlankScreen	VGS	56	3	False	lime	40	[ 90 570 405 675]	[1350 1830  405  675]
366.501	1.0	14392502	14393502	ELCue	VGS	56	3	False	lime	40	[ 90 570 405 675]	[1350 1830  405  675]
367.889	2.0	14393890	14395920	ShowFixation	VGS	57	3	False	lime	600	[1350 1830  405  675]	[ 90 570 405 675]
369.919	0.2	14395920	14396156	BlankScreen	VGS	57	3	False	lime	600	[1350 1830  405  675]	[ 90 570 405 675]
370.155	1.0	14396156	14397156	ELCue	VGS	57	3	False	lime	600	[1350 1830  405  675]	[ 90 570 405 675]
371.559	6.0	14397560	14403591	ShowFixation	VGS	58	3	False	lime	460	[1035 1515  405  675]	[405 885 405 675]
377.59	0.2	14403591	14403830	BlankScreen	VGS	58	3	False	lime	460	[1035 1515  405  675]	[405 885 405 675]
377.829	1.0	14403830	14404830	ELCue	VGS	58	3	False	lime	460	[1035 1515  405  675]	[405 885 405 675]
379.236	6.0	14405237	14411265	ShowFixation	ANTI	59	3	False	red	460	[405 885 405 675]	[1035 1515  405  675]
385.264	0.2	14411265	14411504	BlankScreen	ANTI	59	3	False	red	460	[405 885 405 675]	[1035 1515  405  675]
385.503	1.0	14411504	14412504	ELCue	ANTI	59	3	False	red	460	[405 885 405 675]	[1035 1515  405  675]
386.909	6.0	14412910	14418939	ShowFixation	VGS	60	3	False	lime	460	[1035 1515  405  675]	[405 885 405 675]
392.938	0.2	14418939	14419178	BlankScreen	VGS	60	3	False	lime	460	[1035 1515  405  675]	[405 885 405 675]
393.177	1.0	14419178	14420178	ELCue	VGS	60	3	False	lime	460	[1035 1515  405  675]	[405 885 405 675]
394.59	6.0	14420591	14426630	ShowFixation	ANTI	61	3	False	red	600	[ 90 570 405 675]	[1350 1830  405  675]
400.629	0.2	14426630	14426869	BlankScreen	ANTI	61	3	False	red	600	[ 90 570 405 675]	[1350 1830  405  675]
400.868	1.0	14426869	14427869	ELCue	ANTI	61	3	False	red	600	[ 90 570 405 675]	[1350 1830  405  675]
402.271	2.0	14428272	14430304	ShowFixation	ANTI	62	3	False	red	460	[405 885 405 675]	[1035 1515  405  675]
404.303	0.2	14430304	14430539	BlankScreen	ANTI	62	3	False	red	460	[405 885 405 675]	[1035 1515  405  675]
404.538	1.0	14430539	14431539	ELCue	ANTI	62	3	False	red	460	[405 885 405 675]	[1035 1515  405  675]
405.948	6.0	14431949	14437974	ShowFixation	ANTI	63	3	False	red	180	[1035 1515  405  675]	[405 885 405 675]
411.973	0.2	14437974	14438214	BlankScreen	ANTI	63	3	False	red	180	[1035 1515  405  675]	[405 885 405 675]
412.213	1.0	14438214	14439214	ELCue	ANTI	63	3	False	red	180	[1035 1515  405  675]	[405 885 405 675]
413.627	6.0	14439628	14445665	ShowFixation	ANTI	64	3	False	red	460	[405 885 405 675]	[1035 1515  405  675]
419.664	0.2	14445665	14445905	BlankScreen	ANTI	64	3	False	red	460	[405 885 405 675]	[1035 1515  405  675]
419.904	1.0	14445905	14446905	ELCue	ANTI	64	3	False	red	460	[405 885 405 675]	[1035 1515  405  675]
421.316	2.0	14447317	14449356	ShowFixation	VGS	65	3	False	lime	460	[1035 1515  405  675]	[405 885 405 675]
423.355	0.2	14449356	14449592	BlankScreen	VGS	65	3	False	lime	460	[1035 1515  405  675]	[405 885 405 675]
423.591	1.0	14449592	14450592	ELCue	VGS	65	3	False	lime	460	[1035 1515  405  675]	[405 885 405 675]
424.999	6.0	14451000	14457027	ShowFixation	ANTI	66	3	False	red	40	[1350 1830  405  675]	[ 90 570 405 675]
431.026	0.2	14457027	14457266	BlankScreen	ANTI	66	3	False	red	40	[1350 1830  405  675]	[ 90 570 405 675]
431.265	1.0	14457266	14458266	ELCue	ANTI	66	3	False	red	40	[1350 1830  405  675]	[ 90 570 405 675]
432.657	6.0	14458658	14464684	ShowFixation	VGS	67	3	False	lime	40	[ 90 570 405 675]	[1350 1830  405  675]
438.684	0.2	14464685	14464923	BlankScreen	VGS	67	3	False	lime	40	[ 90 570 405 675]	[1350 1830  405  675]
438.922	1.0	14464923	14465923	ELCue	VGS	67	3	False	lime	40	[ 90 570 405 675]	[1350 1830  405  675]
440.33	6.0	14466331	14472359	ShowFixation	VGS	68	3	False	lime	600	[1350 1830  405  675]	[ 90 570 405 675]
446.358	0.2	14472359	14472598	BlankScreen	VGS	68	3	False	lime	600	[1350 1830  405  675]	[ 90 570 405 675]
446.598	1.0	14472599	14473599	ELCue	VGS	68	3	False	lime	600	[1350 1830  405  675]	[ 90 570 405 675]
448.005	2.0	14474006	14476034	ShowFixation	ANTI	69	3	False	red	600	[ 90 570 405 675]	[1350 1830  405  675]
450.033	0.2	14476034	14476269	BlankScreen	ANTI	69	3	False	red	600	[ 90 570 405 675]	[1350 1830  405  675]
450.268	1.0	14476269	14477269	ELCue	ANTI	69	3	False	red	600	[ 90 570 405 675]	[1350 1830  405  675]
451.673	2.0	14477674	14479704	ShowFixation	VGS	70	3	False	lime	40	[ 90 570 405 675]	[1350 1830  405  675]
453.703	0.2	14479704	14479939	BlankScreen	VGS	70	3	False	lime	40	[ 90 570 405 675]	[1350 1830  405  675]
453.938	1.0	14479939	14480939	ELCue	VGS	70	3	False	lime	40	[ 90 570 405 675]	[1350 1830  405  675]
455.343	6.0	14481344	14487374	ShowFixation	ANTI	71	3	False	red	40	[1350 1830  405  675]	[ 90 570 405 675]
461.373	0.2	14487374	14487614	BlankScreen	ANTI	71	3	False	red	40	[1350 1830  405  675]	[ 90 570 405 675]
461.613	1.0	14487614	14488614	ELCue	ANTI	71	3	False	red	40	[1350 1830  405  675]	[ 90 570 405 675]
463.021	2.0	14489022	14491048	ShowFixation	VGS	72	3	False	lime	40	[ 90 570 405 675]	[1350 1830  405  675]
465.047	0.2	14491048	14491284	BlankScreen	VGS	72	3	False	lime	40	[ 90 570 405 675]	[1350 1830  405  675]
465.283	1.0	14491284	14492284	ELCue	VGS	72	3	False	lime	40	[ 90 570 405 675]	[1350 1830  405  675]
466.671	2.0	14492672	14494702	ShowFixation	VGS	73	3	False	lime	180	[405 885 405 675]	[1035 1515  405  675]
468.701	0.2	14494702	14494937	BlankScreen	VGS	73	3	False	lime	180	[405 885 405 675]	[1035 1515  405  675]
468.936	1.0	14494937	14495937	ELCue	VGS	73	3	False	lime	180	[405 885 405 675]	[1035 1515  405  675]
470.344	2.0	14496345	14498372	ShowFixation	ANTI	74	3	False	red	180	[1035 1515  405  675]	[405 885 405 675]
472.371	0.2	14498372	14498608	BlankScreen	ANTI	74	3	False	red	180	[1035 1515  405  675]	[405 885 405 675]
472.607	1.0	14498608	14499608	ELCue	ANTI	74	3	False	red	180	[1035 1515  405  675]	[405 885 405 675]
474.013	6.0	14500014	14506043	ShowFixation	ANTI	75	3	False	red	600	[ 90 570 405 675]	[1350 1830  405  675]
480.042	0.2	14506043	14506282	BlankScreen	ANTI	75	3	False	red	600	[ 90 570 405 675]	[1350 1830  405  675]
480.281	1.0	14506282	14507282	ELCue	ANTI	75	3	False	red	600	[ 90 570 405 675]	[1350 1830  405  675]
481.672	6.0	14507673	14513700	ShowFixation	ANTI	76	3	False	red	180	[1035 1515  405  675]	[405 885 405 675]
487.699	0.2	14513700	14513939	BlankScreen	ANTI	76	3	False	red	180	[1035 1515  405  675]	[405 885 405 675]
487.938	1.0	14513939	14514939	ELCue	ANTI	76	3	False	red	180	[1035 1515  405  675]	[405 885 405 675]
489.348	2.0	14515349	14517374	ShowFixation	ANTI	77	3	False	red	460	[405 885 405 675]	[1035 1515  405  675]
491.373	0.2	14517374	14517610	BlankScreen	ANTI	77	3	False	red	460	[405 885 405 675]	[1035 1515  405  675]
491.609	1.0	14517610	14518610	ELCue	ANTI	77	3	False	red	460	[405 885 405 675]	[1035 1515  405  675]
493.017	2.0	14519018	14521045	ShowFixation	ANTI	78	3	False	red	40	[1350 1830  405  675]	[ 90 570 405 675]
495.044	0.2	14521045	14521280	BlankScreen	ANTI	78	3	False	red	40	[1350 1830  405  675]	[ 90 570 405 675]
495.279	1.0	14521280	14522280	ELCue	ANTI	78	3	False	red	40	[1350 1830  405  675]	[ 90 570 405 675]
496.664	2.0	14522665	14524698	ShowFixation	VGS	79	3	False	lime	460	[1035 1515  405  675]	[405 885 405 675]
498.697	0.2	14524698	14524934	BlankScreen	VGS	79	3	False	lime	460	[1035 1515  405  675]	[405 885 405 675]
498.933	1.0	14524934	14525934	ELCue	VGS	79	3	False	lime	460	[1035 1515  405  675]	[405 885 405 675]
500.339	2.0	14526340	14528369	ShowFixation	VGS	80	3	False	lime	180	[405 885 405 675]	[1035 1515  405  675]
502.368	0.2	14528369	14528604	BlankScreen	VGS	80	3	False	lime	180	[405 885 405 675]	[1035 1515  405  675]
502.603	1.0	14528604	14529604	ELCue	VGS	80	3	False	lime	180	[405 885 405 675]	[1035 1515  405  675]
555.953	2.0	14581954	14583990	ShowFixation	VGS	81	4	False	lime	180	[405 885 405 675]	[1035 1515  405  675]
557.989	0.2	14583990	14584225	BlankScreen	VGS	81	4	False	lime	180	[405 885 405 675]	[1035 1515  405  675]
558.224	1.0	14584225	14585225	ELCue	VGS	81	4	False	lime	180	[405 885 405 675]	[1035 1515  405  675]
559.595	2.0	14585596	14587627	ShowFixation	ANTI	82	4	False	red	600	[ 90 570 405 675]	[1350 1830  405  675]
561.626	0.2	14587627	14587862	BlankScreen	ANTI	82	4	False	red	600	[ 90 570 405 675]	[1350 1830  405  675]
561.862	1.0	14587863	14588863	ELCue	ANTI	82	4	False	red	600	[ 90 570 405 675]	[1350 1830  405  675]
563.267	6.0	14589268	14595298	ShowFixation	VGS	83	4	False	lime	460	[1035 1515  405  675]	[405 885 405 675]
569.297	0.2	14595298	14595538	BlankScreen	VGS	83	4	False	lime	460	[1035 1515  405  675]	[405 885 405 675]
569.537	1.0	14595538	14596538	ELCue	VGS	83	4	False	lime	460	[1035 1515  405  675]	[405 885 405 675]
570.945	2.0	14596946	14598973	ShowFixation	VGS	84	4	False	lime	460	[1035 1515  405  675]	[405 885 405 675]
572.972	0.2	14598973	14599208	BlankScreen	VGS	84	4	False	lime	460	[1035 1515  405  675]	[405 885 405 675]
573.207	1.0	14599208	14600208	ELCue	VGS	84	4	False	lime	460	[1035 1515  405  675]	[405 885 405 675]
574.599	6.0	14600600	14606626	ShowFixation	ANTI	85	4	False	red	40	[1350 1830  405  675]	[ 90 570 405 675]
580.625	0.2	14606626	14606866	BlankScreen	ANTI	85	4	False	red	40	[1350 1830  405  675]	[ 90 570 405 675]
580.865	1.0	14606866	14607866	ELCue	ANTI	85	4	False	red	40	[1350 1830  405  675]	[ 90 570 405 675]
582.266	6.0	14608267	14614300	ShowFixation	VGS	86	4	False	lime	40	[ 90 570 405 675]	[1350 1830  405  675]
588.299	0.2	14614300	14614540	BlankScreen	VGS	86	4	False	lime	40	[ 90 570 405 675]	[1350 1830  405  675]
588.539	1.0	14614540	14615540	ELCue	VGS	86	4	False	lime	40	[ 90 570 405 675]	[1350 1830  405  675]
589.947	2.0	14615948	14617975	ShowFixation	ANTI	87	4	False	red	40	[1350 1830  405  675]	[ 90 570 405 675]
591.974	0.2	14617975	14618210	BlankScreen	ANTI	87	4	False	red	40	[1350 1830  405  675]	[ 90 570 405 675]
592.209	1.0	14618210	14619210	ELCue	ANTI	87	4	False	red	40	[1350 1830  405  675]	[ 90 570 405 675]
593.609	6.0	14619610	14625645	ShowFixation	VGS	88	4	False	lime	180	[405 885 405 675]	[1035 1515  405  675]
599.644	0.2	14625645	14625884	BlankScreen	VGS	88	4	False	lime	180	[405 885 405 675]	[1035 1515  405  675]
599.883	1.0	14625884	14626884	ELCue	VGS	88	4	False	lime	180	[405 885 405 675]	[1035 1515  405  675]
601.289	2.0	14627290	14629319	ShowFixation	ANTI	89	4	False	red	180	[1035 1515  405  675]	[405 885 405 675]
603.318	0.2	14629319	14629555	BlankScreen	ANTI	89	4	False	red	180	[1035 1515  405  675]	[405 885 405 675]
603.554	1.0	14629555	14630555	ELCue	ANTI	89	4	False	red	180	[1035 1515  405  675]	[405 885 405 675]
604.956	2.0	14630957	14632990	ShowFixation	ANTI	90	4	False	red	460	[405 885 405 675]	[1035 1515  405  675]
606.989	0.2	14632990	14633225	BlankScreen	ANTI	90	4	False	red	460	[405 885 405 675]	[1035 1515  405  675]
607.224	1.0	14633225	14634225	ELCue	ANTI	90	4	False	red	460	[405 885 405 675]	[1035 1515  405  675]
608.631	2.0	14634632	14636660	ShowFixation	ANTI	91	4	False	red	600	[ 90 570 405 675]	[1350 1830  405  675]
610.659	0.2	14636660	14636895	BlankScreen	ANTI	91	4	False	red	600	[ 90 570 405 675]	[1350 1830  405  675]
610.894	1.0	14636895	14637895	ELCue	ANTI	91	4	False	red	600	[ 90 570 405 675]	[1350 1830  405  675]
612.304	2.0	14638305	14640330	ShowFixation	VGS	92	4	False	lime	460	[1035 1515  405  675]	[405 885 405 675]
614.329	0.2	14640330	14640565	BlankScreen	VGS	92	4	False	lime	460	[1035 1515  405  675]	[405 885 405 675]
614.564	1.0	14640565	14641565	ELCue	VGS	92	4	False	lime	460	[1035 1515  405  675]	[405 885 405 675]
615.975	6.0	14641976	14648000	ShowFixation	ANTI	93	4	False	red	180	[1035 1515  405  675]	[405 885 405 675]
621.999	0.2	14648000	14648240	BlankScreen	ANTI	93	4	False	red	180	[1035 1515  405  675]	[405 885 405 675]
622.239	1.0	14648240	14649240	ELCue	ANTI	93	4	False	red	180	[1035 1515  405  675]	[405 885 405 675]
623.649	6.0	14649650	14655675	ShowFixation	ANTI	94	4	False	red	600	[ 90 570 405 675]	[1350 1830  405  675]
629.674	0.2	14655675	14655914	BlankScreen	ANTI	94	4	False	red	600	[ 90 570 405 675]	[1350 1830  405  675]
629.913	1.0	14655914	14656914	ELCue	ANTI	94	4	False	red	600	[ 90 570 405 675]	[1350 1830  405  675]
631.319	6.0	14657320	14663349	ShowFixation	VGS	95	4	False	lime	600	[1350 1830  405  675]	[ 90 570 405 675]
637.348	0.2	14663349	14663588	BlankScreen	VGS	95	4	False	lime	600	[1350 1830  405  675]	[ 90 570 405 675]
637.587	1.0	14663588	14664588	ELCue	VGS	95	4	False	lime	600	[1350 1830  405  675]	[ 90 570 405 675]
638.998	2.0	14664999	14667040	ShowFixation	VGS	96	4	False	lime	40	[ 90 570 405 675]	[1350 1830  405  675]
641.039	0.2	14667040	14667275	BlankScreen	VGS	96	4	False	lime	40	[ 90 570 405 675]	[1350 1830  405  675]
641.274	1.0	14667275	14668275	ELCue	VGS	96	4	False	lime	40	[ 90 570 405 675]	[1350 1830  405  675]
642.684	2.0	14668685	14670710	ShowFixation	VGS	97	4	False	lime	600	[1350 1830  405  675]	[ 90 570 405 675]
644.709	0.2	14670710	14670945	BlankScreen	VGS	97	4	False	lime	600	[1350 1830  405  675]	[ 90 570 405 675]
644.944	1.0	14670945	14671945	ELCue	VGS	97	4	False	lime	600	[1350 1830  405  675]	[ 90 570 405 675]
646.316	6.0	14672317	14678347	ShowFixation	ANTI	98	4	False	red	180	[1035 1515  405  675]	[405 885 405 675]
652.346	0.2	14678347	14678586	BlankScreen	ANTI	98	4	False	red	180	[1035 1515  405  675]	[405 885 405 675]
652.585	1.0	14678586	14679586	ELCue	ANTI	98	4	False	red	180	[1035 1515  405  675]	[405 885 405 675]
653.996	2.0	14679997	14682021	ShowFixation	VGS	99	4	False	lime	180	[405 885 405 675]	[1035 1515  405  675]
656.02	0.2	14682021	14682257	BlankScreen	VGS	99	4	False	lime	180	[405 885 405 675]	[1035 1515  405  675]
656.256	1.0	14682257	14683257	ELCue	VGS	99	4	False	lime	180	[405 885 405 675]	[1035 1515  405  675]
657.635	6.0	14683636	14689675	ShowFixation	ANTI	100	4	False	red	460	[405 885 405 675]	[1035 1515  405  675]
663.674	0.2	14689675	14689914	BlankScreen	ANTI	100	4	False	red	460	[405 885 405 675]	[1035 1515  405  675]
663.913	1.0	14689914	14690914	ELCue	ANTI	100	4	False	red	460	[405 885 405 675]	[1035 1515  405  675]
665.318	2.0	14691319	14693349	ShowFixation	ANTI	101	4	False	red	40	[1350 1830  405  675]	[ 90 570 405 675]
667.348	0.2	14693349	14693584	BlankScreen	ANTI	101	4	False	red	40	[1350 1830  405  675]	[ 90 570 405 675]
667.583	1.0	14693584	14694584	ELCue	ANTI	101	4	False	red	40	[1350 1830  405  675]	[ 90 570 405 675]
668.991	2.0	14694992	14697019	ShowFixation	VGS	102	4	False	lime	600	[1350 1830  405  675]	[ 90 570 405 675]
671.018	0.2	14697019	14697255	BlankScreen	VGS	102	4	False	lime	600	[1350 1830  405  675]	[ 90 570 405 675]
671.254	1.0	14697255	14698255	ELCue	VGS	102	4	False	lime	600	[1350 1830  405  675]	[ 90 570 405 675]
672.657	6.0	14698658	14704690	ShowFixation	VGS	103	4	False	lime	180	[405 885 405 675]	[1035 1515  405  675]
678.69	0.2	14704691	14704930	BlankScreen	VGS	103	4	False	lime	180	[405 885 405 675]	[1035 1515  405  675]
678.929	1.0	14704930	14705930	ELCue	VGS	103	4	False	lime	180	[405 885 405 675]	[1035 1515  405  675]
680.337	6.0	14706338	14712365	ShowFixation	VGS	104	4	False	lime	40	[ 90 570 405 675]	[1350 1830  405  675]
686.364	0.2	14712365	14712604	BlankScreen	VGS	104	4	False	lime	40	[ 90 570 405 675]	[1350 1830  405  675]
686.603	1.0	14712604	14713604	ELCue	VGS	104	4	False	lime	40	[ 90 570 405 675]	[1350 1830  405  675]
688.015	6.0	14714016	14720056	ShowFixation	VGS	105	4	False	lime	600	[1350 1830  405  675]	[ 90 570 405 675]
694.055	0.2	14720056	14720295	BlankScreen	VGS	105	4	False	lime	600	[1350 1830  405  675]	[ 90 570 405 675]
694.294	1.0	14720295	14721295	ELCue	VGS	105	4	False	lime	600	[1350 1830  405  675]	[ 90 570 405 675]
695.702	6.0	14721703	14727730	ShowFixation	ANTI	106	4	False	red	600	[ 90 570 405 675]	[1350 1830  405  675]
701.729	0.2	14727730	14727969	BlankScreen	ANTI	106	4	False	red	600	[ 90 570 405 675]	[1350 1830  405  675]
701.968	1.0	14727969	14728969	ELCue	ANTI	106	4	False	red	600	[ 90 570 405 675]	[1350 1830  405  675]
703.371	6.0	14729372	14735404	ShowFixation	ANTI	107	4	False	red	40	[1350 1830  405  675]	[ 90 570 405 675]
709.403	0.2	14735404	14735644	BlankScreen	ANTI	107	4	False	red	40	[1350 1830  405  675]	[ 90 570 405 675]
709.643	1.0	14735644	14736644	ELCue	ANTI	107	4	False	red	40	[1350 1830  405  675]	[ 90 570 405 675]
711.049	6.0	14737050	14743079	ShowFixation	VGS	108	4	False	lime	460	[1035 1515  405  675]	[405 885 405 675]
717.078	0.2	14743079	14743318	BlankScreen	VGS	108	4	False	lime	460	[1035 1515  405  675]	[405 885 405 675]
717.317	1.0	14743318	14744318	ELCue	VGS	108	4	False	lime	460	[1035 1515  405  675]	[405 885 405 675]
718.72	6.0	14744721	14750753	ShowFixation	ANTI	109	4	False	red	460	[405 885 405 675]	[1035 1515  405  675]
724.752	0.2	14750753	14750992	BlankScreen	ANTI	109	4	False	red	460	[405 885 405 675]	[1035 1515  405  675]
724.991	1.0	14750992	14751992	ELCue	ANTI	109	4	False	red	460	[405 885 405 675]	[1035 1515  405  675]
726.399	2.0	14752400	14754427	ShowFixation	ANTI	110	4	False	red	180	[1035 1515  405  675]	[405 885 405 675]
728.426	0.2	14754427	14754662	BlankScreen	ANTI	110	4	False	red	180	[1035 1515  405  675]	[405 885 405 675]
728.661	1.0	14754662	14755662	ELCue	ANTI	110	4	False	red	180	[1035 1515  405  675]	[405 885 405 675]
730.064	2.0	14756065	14758097	ShowFixation	VGS	111	4	False	lime	40	[ 90 570 405 675]	[1350 1830  405  675]
732.096	0.2	14758097	14758333	BlankScreen	VGS	111	4	False	lime	40	[ 90 570 405 675]	[1350 1830  405  675]
732.332	1.0	14758333	14759333	ELCue	VGS	111	4	False	lime	40	[ 90 570 405 675]	[1350 1830  405  675]
733.744	2.0	14759745	14761784	ShowFixation	ANTI	112	4	False	red	460	[405 885 405 675]	[1035 1515  405  675]
735.783	0.2	14761784	14762020	BlankScreen	ANTI	112	4	False	red	460	[405 885 405 675]	[1035 1515  405  675]
736.019	1.0	14762020	14763020	ELCue	ANTI	112	4	False	red	460	[405 885 405 675]	[1035 1515  405  675]
