participant_id	condition	accuracy	reaction_time
sub-23916	incongruent	1	0.867
sub-23916	congruent	1	0.491
sub-23916	congruent	1	0.487
sub-23916	congruent	1	0.532
sub-23916	congruent	1	0.498
sub-23916	incongruent	1	0.516
sub-23916	congruent	1	0.779
sub-23916	congruent	1	0.427
sub-23916	incongruent	1	0.638
sub-23916	congruent	1	0.507
sub-23916	congruent	1	0.486
sub-23916	incongruent	0	0.528
sub-23916	congruent	1	0.551
sub-23916	congruent	1	0.456
sub-23916	incongruent	1	0.624
sub-23916	congruent	1	0.463
sub-23916	incongruent	0	0.475
sub-23916	incongruent	1	0.410
sub-23916	congruent	1	0.569
sub-23916	congruent	1	0.502
sub-23916	congruent	1	0.741
sub-23916	incongruent	1	0.539
sub-23916	incongruent	1	0.740
sub-23916	incongruent	1	0.724
sub-23916	congruent	1	0.603
sub-23916	incongruent	1	1.241
sub-23916	incongruent	1	1.207
sub-23916	incongruent	1	1.084
sub-23916	incongruent	1	0.851
sub-23916	incongruent	1	1.283
sub-23916	incongruent	1	0.854
sub-23916	congruent	1	1.184
sub-23916	incongruent	1	0.925
sub-23916	congruent	1	0.762
sub-23916	incongruent	1	1.001
sub-23916	incongruent	1	0.826
sub-23916	incongruent	1	0.833
sub-23916	incongruent	1	0.778
sub-23916	incongruent	1	0.658
sub-23916	incongruent	1	0.575
sub-23916	incongruent	1	1.050
sub-23916	incongruent	1	0.682
sub-23916	congruent	1	0.622
sub-23916	incongruent	1	0.857
sub-23916	congruent	1	0.756
sub-23916	congruent	1	0.528
sub-23916	incongruent	1	1.009
sub-23916	incongruent	1	0.712
sub-23916	congruent	1	0.637
sub-23916	congruent	1	0.503
sub-23916	congruent	1	0.742
sub-23916	incongruent	1	0.957
sub-23916	congruent	1	1.023
sub-23916	congruent	1	0.922
sub-23916	congruent	1	0.698
sub-23916	congruent	1	0.687
sub-23916	congruent	1	0.602
sub-23916	congruent	1	0.475
sub-23916	incongruent	1	0.591
sub-23916	congruent	1	0.811
sub-23916	incongruent	1	0.708
sub-23916	incongruent	1	0.617
sub-23916	incongruent	1	0.601
sub-23916	incongruent	0	0.568
sub-23916	incongruent	1	0.545
sub-23916	incongruent	1	0.648
sub-23916	incongruent	1	0.525
sub-23916	incongruent	1	0.587
sub-23916	congruent	1	0.587
sub-23916	congruent	1	0.512
sub-23916	incongruent	1	0.508
sub-23916	incongruent	1	0.571
sub-23916	incongruent	1	0.662
sub-23916	congruent	1	0.488
sub-23916	incongruent	1	0.613
sub-23916	congruent	1	0.545
sub-23916	congruent	1	0.508
sub-23916	incongruent	0	0.507
sub-23916	congruent	1	0.457
sub-23916	congruent	1	0.463
sub-23916	congruent	1	0.494
sub-23916	congruent	1	0.524
sub-23916	incongruent	0	0.489
sub-23916	congruent	1	0.455
sub-23916	incongruent	1	0.783
sub-23916	incongruent	1	0.796
sub-23916	incongruent	1	0.576
sub-23916	congruent	1	0.492
sub-23916	congruent	1	0.493
sub-23916	congruent	1	0.447
sub-23916	congruent	1	0.478
sub-23916	congruent	1	0.519
sub-23916	incongruent	1	0.585
sub-23916	congruent	1	0.493
sub-23916	incongruent	1	1.014
sub-23916	congruent	1	0.433
sub-23916	congruent	1	0.588
sub-23916	congruent	1	0.468
sub-23916	incongruent	1	0.554
sub-23916	congruent	1	0.771
sub-23916	congruent	1	0.633
sub-23916	congruent	1	0.750
sub-23916	congruent	1	0.413
sub-23916	incongruent	1	0.723
sub-23916	incongruent	1	0.635
sub-23916	congruent	1	0.678
sub-23916	congruent	1	0.730
sub-23916	incongruent	1	0.628
sub-23916	incongruent	1	0.590
sub-23916	incongruent	0	0.653
sub-23916	incongruent	1	0.791
sub-23916	congruent	1	0.502
sub-23916	congruent	1	0.495
sub-23916	congruent	1	0.612
sub-23916	incongruent	1	0.889
sub-23916	congruent	1	0.742
sub-23916	incongruent	0	0.496
sub-23916	incongruent	1	0.361
sub-23916	incongruent	1	0.606
sub-23916	congruent	1	0.511
sub-23916	congruent	1	1.159
sub-23916	incongruent	1	0.545
sub-23916	incongruent	0	0.362
sub-23916	congruent	1	0.447
sub-23916	incongruent	0	0.509
sub-23916	congruent	1	0.440
sub-23916	congruent	1	0.443
sub-23916	incongruent	0	0.448
sub-23916	congruent	1	0.454
sub-23916	congruent	1	0.398
sub-23916	congruent	1	0.546
sub-23916	congruent	1	0.401
sub-23916	incongruent	1	0.640
sub-23916	incongruent	1	0.607
sub-23916	congruent	1	0.555
sub-23916	incongruent	1	0.652
sub-23916	congruent	1	0.509
sub-23916	congruent	1	0.647
sub-23916	incongruent	1	0.564
sub-23916	congruent	1	0.838
sub-23916	incongruent	1	0.608
sub-23916	congruent	1	0.572
sub-23916	congruent	1	0.543
sub-23916	congruent	1	0.690
sub-23916	incongruent	1	0.559
sub-23916	congruent	1	0.452
sub-23916	congruent	1	0.791
sub-23916	incongruent	1	0.674
sub-23916	congruent	1	0.486
sub-23916	incongruent	1	0.662
sub-23916	congruent	1	0.398
sub-23916	incongruent	0	0.457
sub-23916	congruent	1	0.283
sub-23916	incongruent	1	0.560
sub-23916	congruent	1	0.512
sub-23916	congruent	1	0.573
sub-23916	incongruent	1	0.649
sub-23916	congruent	1	0.489
sub-23916	incongruent	1	0.735
sub-23916	incongruent	0	0.242
sub-23916	congruent	1	0.503
sub-23916	incongruent	0	0.794
sub-23916	congruent	1	0.611
sub-23916	congruent	1	0.597
sub-23916	incongruent	1	0.944
sub-23916	incongruent	1	0.549
sub-23916	incongruent	1	0.681
sub-23916	incongruent	1	0.801
sub-23916	incongruent	1	0.650
sub-23916	incongruent	1	0.555
sub-23916	incongruent	1	1.338
sub-23916	incongruent	0	0.000
sub-23916	incongruent	1	0.843
sub-23916	congruent	1	0.678
sub-23916	congruent	1	0.770
sub-23916	congruent	1	0.693
sub-23916	incongruent	1	0.620
sub-23916	incongruent	1	0.616
sub-23916	incongruent	1	0.679
sub-23916	congruent	1	0.632
sub-23916	incongruent	1	1.360
sub-23916	incongruent	1	0.609
sub-23916	incongruent	1	0.586
sub-23916	congruent	1	0.460
sub-23916	congruent	1	0.514
sub-23916	incongruent	1	0.581
sub-23916	congruent	1	0.481
sub-23916	congruent	1	0.414
sub-23916	incongruent	1	0.587
sub-23916	incongruent	1	0.492
sub-23916	congruent	1	0.557
sub-23916	incongruent	1	0.503
sub-23916	congruent	1	0.443
sub-23916	congruent	1	0.451
sub-23916	congruent	1	0.418
sub-23916	incongruent	1	0.562
sub-23916	congruent	1	0.454
sub-23916	congruent	0	0.532
sub-23916	congruent	1	0.461
sub-23916	incongruent	1	0.526
sub-23916	incongruent	1	0.577
sub-23916	congruent	1	0.522
sub-23916	incongruent	1	0.515
sub-23916	congruent	1	0.490
sub-23916	congruent	1	0.591
sub-23916	congruent	1	0.729
sub-23916	congruent	1	0.442
sub-23916	congruent	1	0.392
sub-23916	incongruent	0	0.432
sub-23916	congruent	1	0.454
sub-23916	incongruent	0	0.373
sub-23916	incongruent	1	0.360
sub-23916	incongruent	1	0.604
sub-23916	incongruent	0	0.618
sub-23916	congruent	1	0.473
sub-23916	incongruent	1	0.583
sub-23916	incongruent	0	0.646
sub-23916	congruent	0	0.665
sub-23916	incongruent	1	0.509
sub-23916	congruent	1	0.545
sub-23916	congruent	1	0.397
sub-23916	congruent	1	0.511
sub-23916	congruent	1	0.846
sub-23916	incongruent	1	0.697
sub-23916	incongruent	0	0.354
sub-23916	congruent	1	0.584
sub-23916	incongruent	1	0.562
sub-23916	incongruent	1	0.620
sub-23916	incongruent	1	0.732
sub-23916	incongruent	1	0.602
sub-23916	congruent	1	1.102
sub-23916	incongruent	1	0.680
sub-23916	congruent	1	0.529
sub-23916	incongruent	1	0.755
sub-23916	congruent	1	0.557
sub-23916	incongruent	1	0.591
sub-23916	incongruent	1	0.646
sub-23916	congruent	1	0.581
sub-23916	incongruent	0	0.537
sub-23916	congruent	1	0.541
