participant_id	condition	accuracy	reaction_time
sub-24155	congruent	1	1.215
sub-24155	incongruent	1	0.690
sub-24155	incongruent	1	0.579
sub-24155	congruent	1	0.530
sub-24155	congruent	1	0.427
sub-24155	incongruent	1	0.662
sub-24155	congruent	1	0.515
sub-24155	congruent	1	0.536
sub-24155	incongruent	1	0.730
sub-24155	congruent	1	0.628
sub-24155	congruent	1	0.462
sub-24155	incongruent	1	0.516
sub-24155	congruent	1	0.494
sub-24155	congruent	1	0.463
sub-24155	congruent	1	0.440
sub-24155	congruent	1	0.508
sub-24155	congruent	1	0.616
sub-24155	incongruent	1	0.547
sub-24155	incongruent	1	0.579
sub-24155	congruent	1	0.436
sub-24155	congruent	1	0.498
sub-24155	incongruent	1	0.519
sub-24155	incongruent	1	0.508
sub-24155	congruent	1	0.482
sub-24155	incongruent	1	0.574
sub-24155	incongruent	0	0.495
sub-24155	congruent	1	0.582
sub-24155	congruent	1	0.465
sub-24155	incongruent	1	0.553
sub-24155	congruent	1	0.452
sub-24155	congruent	1	0.403
sub-24155	incongruent	1	0.501
sub-24155	congruent	1	0.489
sub-24155	congruent	1	0.412
sub-24155	congruent	1	0.431
sub-24155	congruent	1	0.397
sub-24155	incongruent	1	0.538
sub-24155	incongruent	1	0.654
sub-24155	congruent	1	0.513
sub-24155	incongruent	1	0.866
sub-24155	congruent	1	0.396
sub-24155	incongruent	1	0.570
sub-24155	incongruent	1	0.656
sub-24155	congruent	1	0.514
sub-24155	congruent	1	0.438
sub-24155	incongruent	1	0.503
sub-24155	incongruent	1	0.459
sub-24155	incongruent	1	0.481
sub-24155	incongruent	0	0.355
sub-24155	incongruent	1	0.491
sub-24155	congruent	1	0.407
sub-24155	incongruent	1	0.497
sub-24155	incongruent	1	0.411
sub-24155	incongruent	1	0.481
sub-24155	congruent	1	0.418
sub-24155	congruent	1	0.454
sub-24155	incongruent	1	0.424
sub-24155	incongruent	1	0.459
sub-24155	incongruent	1	0.550
sub-24155	incongruent	1	0.454
sub-24155	congruent	1	0.662
sub-24155	congruent	1	0.335
sub-24155	congruent	1	0.234
sub-24155	incongruent	1	0.263
sub-24155	congruent	0	0.365
sub-24155	congruent	1	0.467
sub-24155	congruent	1	0.400
sub-24155	congruent	1	0.388
sub-24155	congruent	1	0.368
sub-24155	incongruent	1	0.471
sub-24155	congruent	1	0.363
sub-24155	congruent	1	0.362
sub-24155	incongruent	0	0.349
sub-24155	incongruent	1	0.455
sub-24155	congruent	1	0.354
sub-24155	congruent	0	0.407
sub-24155	incongruent	0	0.434
sub-24155	congruent	1	0.422
sub-24155	incongruent	1	0.426
sub-24155	congruent	1	0.432
sub-24155	incongruent	0	0.365
sub-24155	incongruent	1	0.587
sub-24155	incongruent	1	0.525
sub-24155	incongruent	1	0.583
sub-24155	incongruent	1	0.630
sub-24155	congruent	1	0.477
sub-24155	congruent	1	0.465
sub-24155	congruent	1	0.475
sub-24155	incongruent	1	0.613
sub-24155	congruent	1	0.491
sub-24155	incongruent	1	0.563
sub-24155	congruent	1	0.501
sub-24155	incongruent	1	0.781
sub-24155	incongruent	1	0.516
sub-24155	incongruent	1	0.558
sub-24155	incongruent	1	0.569
sub-24155	congruent	1	0.502
sub-24155	incongruent	1	0.546
sub-24155	incongruent	1	0.586
sub-24155	congruent	1	0.595
sub-24155	incongruent	1	0.464
sub-24155	incongruent	0	0.468
sub-24155	incongruent	1	0.798
sub-24155	congruent	1	0.512
sub-24155	congruent	1	0.432
sub-24155	incongruent	1	0.639
sub-24155	incongruent	1	0.510
sub-24155	congruent	1	0.558
sub-24155	incongruent	1	0.488
sub-24155	incongruent	1	0.628
sub-24155	congruent	1	0.573
sub-24155	incongruent	1	0.481
sub-24155	incongruent	1	0.557
sub-24155	congruent	1	0.748
sub-24155	congruent	1	0.440
sub-24155	congruent	1	0.458
sub-24155	congruent	1	0.479
sub-24155	incongruent	1	0.498
sub-24155	congruent	1	0.420
sub-24155	incongruent	1	0.396
sub-24155	congruent	1	0.560
sub-24155	congruent	1	0.345
sub-24155	congruent	1	0.410
sub-24155	congruent	1	0.399
sub-24155	incongruent	1	0.524
sub-24155	congruent	1	0.427
sub-24155	incongruent	1	0.477
sub-24155	incongruent	1	0.512
sub-24155	congruent	1	0.423
sub-24155	congruent	1	0.439
sub-24155	congruent	1	0.502
sub-24155	congruent	1	0.430
sub-24155	congruent	0	0.487
sub-24155	congruent	1	0.600
sub-24155	incongruent	1	0.533
sub-24155	incongruent	1	0.555
sub-24155	incongruent	1	0.393
sub-24155	incongruent	1	0.431
sub-24155	incongruent	1	0.545
sub-24155	incongruent	1	0.540
sub-24155	congruent	1	0.551
sub-24155	incongruent	1	0.486
sub-24155	incongruent	0	0.336
sub-24155	incongruent	1	0.493
sub-24155	incongruent	1	0.558
sub-24155	congruent	1	0.469
sub-24155	congruent	1	0.445
sub-24155	incongruent	1	0.473
sub-24155	incongruent	0	0.381
sub-24155	incongruent	1	0.434
sub-24155	incongruent	1	0.479
sub-24155	incongruent	1	0.512
sub-24155	congruent	1	0.428
sub-24155	congruent	1	0.483
sub-24155	incongruent	1	0.521
sub-24155	congruent	1	0.455
sub-24155	incongruent	1	0.507
sub-24155	congruent	1	0.464
sub-24155	congruent	1	0.431
sub-24155	incongruent	1	0.501
sub-24155	congruent	1	0.338
sub-24155	congruent	1	0.383
sub-24155	congruent	1	0.682
sub-24155	congruent	1	0.462
sub-24155	incongruent	0	0.340
sub-24155	incongruent	1	0.501
sub-24155	incongruent	1	0.445
sub-24155	incongruent	1	0.535
sub-24155	congruent	1	0.566
sub-24155	congruent	1	0.457
sub-24155	incongruent	1	0.562
sub-24155	incongruent	1	0.575
sub-24155	incongruent	1	0.535
sub-24155	incongruent	1	0.933
sub-24155	incongruent	1	0.604
sub-24155	congruent	1	0.707
sub-24155	congruent	1	0.553
sub-24155	congruent	1	0.411
sub-24155	congruent	1	0.535
sub-24155	congruent	1	0.563
sub-24155	incongruent	1	0.946
sub-24155	congruent	1	0.469
sub-24155	incongruent	0	0.407
sub-24155	incongruent	1	0.516
sub-24155	congruent	1	0.461
sub-24155	congruent	1	0.440
sub-24155	incongruent	1	0.514
sub-24155	incongruent	1	0.510
sub-24155	incongruent	1	0.560
sub-24155	congruent	1	0.484
sub-24155	incongruent	1	0.443
sub-24155	incongruent	1	0.553
sub-24155	incongruent	1	0.452
sub-24155	congruent	1	0.417
sub-24155	incongruent	1	0.427
sub-24155	congruent	1	0.514
sub-24155	congruent	1	0.504
sub-24155	congruent	1	0.396
sub-24155	incongruent	0	0.501
sub-24155	incongruent	0	0.528
sub-24155	congruent	1	0.536
sub-24155	incongruent	1	0.613
sub-24155	incongruent	1	0.610
sub-24155	congruent	1	0.843
sub-24155	congruent	1	0.527
sub-24155	incongruent	1	0.478
sub-24155	congruent	1	0.442
sub-24155	congruent	0	0.561
sub-24155	incongruent	1	0.572
sub-24155	incongruent	1	0.494
sub-24155	congruent	1	0.550
sub-24155	incongruent	1	0.471
sub-24155	incongruent	1	0.521
sub-24155	congruent	1	0.484
sub-24155	incongruent	1	0.640
sub-24155	incongruent	1	0.544
sub-24155	incongruent	1	0.579
sub-24155	incongruent	1	0.531
sub-24155	congruent	1	0.538
sub-24155	congruent	1	0.544
sub-24155	congruent	1	0.551
sub-24155	incongruent	1	0.537
sub-24155	congruent	1	0.466
sub-24155	incongruent	1	0.553
sub-24155	congruent	1	0.488
sub-24155	congruent	1	0.441
sub-24155	congruent	1	0.483
sub-24155	congruent	1	0.445
sub-24155	congruent	1	0.429
sub-24155	incongruent	1	0.468
sub-24155	congruent	1	0.617
sub-24155	congruent	1	0.416
sub-24155	incongruent	0	0.431
sub-24155	congruent	1	0.457
sub-24155	incongruent	1	0.618
sub-24155	congruent	1	0.490
sub-24155	incongruent	1	0.437
sub-24155	congruent	1	0.414
sub-24155	incongruent	0	0.749
sub-24155	congruent	1	0.596
