onset	duration	startTime	stopTime	eventIdentifier	trial_type	trial_number	block_number	is_practice	fixation_color	cue_side	aoi_correct	aoi_incorrect
0.144	2.0	3342961	3345002	ShowFixation	VGS	1	1	True	lime	600	[1350 1830  405  675]	[ 90 570 405 675]
2.185	0.2	3345002	3345237	BlankScreen	VGS	1	1	True	lime	600	[1350 1830  405  675]	[ 90 570 405 675]
2.42	1.0	3345237	3346278	ELCue	VGS	1	1	True	lime	600	[1350 1830  405  675]	[ 90 570 405 675]
3.869	2.0	3346686	3349323	ShowFixation	VGS	2	1	True	lime	40	[ 90 570 405 675]	[1350 1830  405  675]
6.506	0.2	3349323	3349558	BlankScreen	VGS	2	1	True	lime	40	[ 90 570 405 675]	[1350 1830  405  675]
6.741	1.0	3349558	3350598	ELCue	VGS	2	1	True	lime	40	[ 90 570 405 675]	[1350 1830  405  675]
8.181	2.0	3350998	3353627	ShowFixation	VGS	3	1	True	lime	180	[405 885 405 675]	[1035 1515  405  675]
10.81	0.2	3353627	3353846	BlankScreen	VGS	3	1	True	lime	180	[405 885 405 675]	[1035 1515  405  675]
11.029	1.0	3353846	3354869	ELCue	VGS	3	1	True	lime	180	[405 885 405 675]	[1035 1515  405  675]
12.457	2.0	3355274	3357915	ShowFixation	ANTI	4	1	True	red	180	[1035 1515  405  675]	[405 885 405 675]
15.098	0.2	3357915	3358150	BlankScreen	ANTI	4	1	True	red	180	[1035 1515  405  675]	[405 885 405 675]
15.333	1.0	3358150	3359191	ELCue	ANTI	4	1	True	red	180	[1035 1515  405  675]	[405 885 405 675]
16.778	6.0	3359595	3366236	ShowFixation	VGS	5	1	True	lime	600	[1350 1830  405  675]	[ 90 570 405 675]
23.419	0.2	3366236	3366475	BlankScreen	VGS	5	1	True	lime	600	[1350 1830  405  675]	[ 90 570 405 675]
23.658	1.0	3366475	3367516	ELCue	VGS	5	1	True	lime	600	[1350 1830  405  675]	[ 90 570 405 675]
25.099	6.0	3367916	3374560	ShowFixation	ANTI	6	1	True	red	180	[1035 1515  405  675]	[405 885 405 675]
31.743	0.2	3374560	3374800	BlankScreen	ANTI	6	1	True	red	180	[1035 1515  405  675]	[405 885 405 675]
31.983	1.0	3374800	3375840	ELCue	ANTI	6	1	True	red	180	[1035 1515  405  675]	[405 885 405 675]
33.386	2.0	3376203	3378869	ShowFixation	ANTI	7	1	True	red	40	[1350 1830  405  675]	[ 90 570 405 675]
36.052	0.2	3378869	3379087	BlankScreen	ANTI	7	1	True	red	40	[1350 1830  405  675]	[ 90 570 405 675]
36.27	1.0	3379087	3380111	ELCue	ANTI	7	1	True	red	40	[1350 1830  405  675]	[ 90 570 405 675]
37.694	6.0	3380511	3387156	ShowFixation	ANTI	8	1	True	red	460	[405 885 405 675]	[1035 1515  405  675]
44.339	0.2	3387156	3387395	BlankScreen	ANTI	8	1	True	red	460	[405 885 405 675]	[1035 1515  405  675]
44.578	1.0	3387395	3388436	ELCue	ANTI	8	1	True	red	460	[405 885 405 675]	[1035 1515  405  675]
46.02	2.0	3388837	3391481	ShowFixation	ANTI	9	1	True	red	460	[405 885 405 675]	[1035 1515  405  675]
48.664	0.2	3391481	3391716	BlankScreen	ANTI	9	1	True	red	460	[405 885 405 675]	[1035 1515  405  675]
48.899	1.0	3391716	3392757	ELCue	ANTI	9	1	True	red	460	[405 885 405 675]	[1035 1515  405  675]
50.331	6.0	3393148	3399785	ShowFixation	ANTI	10	1	True	red	40	[1350 1830  405  675]	[ 90 570 405 675]
56.968	0.2	3399785	3400025	BlankScreen	ANTI	10	1	True	red	40	[1350 1830  405  675]	[ 90 570 405 675]
57.208	1.0	3400025	3401066	ELCue	ANTI	10	1	True	red	40	[1350 1830  405  675]	[ 90 570 405 675]
58.648	6.0	3401465	3408110	ShowFixation	VGS	11	1	True	lime	180	[405 885 405 675]	[1035 1515  405  675]
65.293	0.2	3408110	3408349	BlankScreen	VGS	11	1	True	lime	180	[405 885 405 675]	[1035 1515  405  675]
65.532	1.0	3408349	3409391	ELCue	VGS	11	1	True	lime	180	[405 885 405 675]	[1035 1515  405  675]
66.977	6.0	3409794	3416436	ShowFixation	ANTI	12	1	True	red	600	[ 90 570 405 675]	[1350 1830  405  675]
73.619	0.2	3416436	3416675	BlankScreen	ANTI	12	1	True	red	600	[ 90 570 405 675]	[1350 1830  405  675]
73.858	1.0	3416675	3417716	ELCue	ANTI	12	1	True	red	600	[ 90 570 405 675]	[1350 1830  405  675]
75.267	6.0	3418084	3424761	ShowFixation	VGS	13	1	True	lime	40	[ 90 570 405 675]	[1350 1830  405  675]
81.944	0.2	3424761	3425000	BlankScreen	VGS	13	1	True	lime	40	[ 90 570 405 675]	[1350 1830  405  675]
82.183	1.0	3425000	3426040	ELCue	VGS	13	1	True	lime	40	[ 90 570 405 675]	[1350 1830  405  675]
83.626	2.0	3426443	3429069	ShowFixation	VGS	14	1	True	lime	460	[1035 1515  405  675]	[405 885 405 675]
86.252	0.2	3429069	3429288	BlankScreen	VGS	14	1	True	lime	460	[1035 1515  405  675]	[405 885 405 675]
86.471	1.0	3429288	3430311	ELCue	VGS	14	1	True	lime	460	[1035 1515  405  675]	[405 885 405 675]
87.897	2.0	3430714	3433357	ShowFixation	ANTI	15	1	True	red	600	[ 90 570 405 675]	[1350 1830  405  675]
90.54	0.2	3433357	3433592	BlankScreen	ANTI	15	1	True	red	600	[ 90 570 405 675]	[1350 1830  405  675]
90.775	1.0	3433592	3434632	ELCue	ANTI	15	1	True	red	600	[ 90 570 405 675]	[1350 1830  405  675]
92.22	6.0	3435037	3441661	ShowFixation	VGS	16	1	True	lime	460	[1035 1515  405  675]	[405 885 405 675]
98.844	0.2	3441661	3441899	BlankScreen	VGS	16	1	True	lime	460	[1035 1515  405  675]	[405 885 405 675]
99.083	1.0	3441900	3442941	ELCue	VGS	16	1	True	lime	460	[1035 1515  405  675]	[405 885 405 675]
115.785	2.0	3458602	3460634	ShowFixation	ANTI	17	2	False	red	40	[1350 1830  405  675]	[ 90 570 405 675]
117.817	0.2	3460634	3460869	BlankScreen	ANTI	17	2	False	red	40	[1350 1830  405  675]	[ 90 570 405 675]
118.052	1.0	3460869	3461869	ELCue	ANTI	17	2	False	red	40	[1350 1830  405  675]	[ 90 570 405 675]
119.454	6.0	3462271	3468304	ShowFixation	ANTI	18	2	False	red	180	[1035 1515  405  675]	[405 885 405 675]
125.487	0.2	3468304	3468543	BlankScreen	ANTI	18	2	False	red	180	[1035 1515  405  675]	[405 885 405 675]
125.726	1.0	3468543	3469543	ELCue	ANTI	18	2	False	red	180	[1035 1515  405  675]	[405 885 405 675]
127.134	2.0	3469951	3471978	ShowFixation	ANTI	19	2	False	red	180	[1035 1515  405  675]	[405 885 405 675]
129.161	0.2	3471978	3472213	BlankScreen	ANTI	19	2	False	red	180	[1035 1515  405  675]	[405 885 405 675]
129.396	1.0	3472213	3473213	ELCue	ANTI	19	2	False	red	180	[1035 1515  405  675]	[405 885 405 675]
130.787	6.0	3473604	3479632	ShowFixation	VGS	20	2	False	lime	460	[1035 1515  405  675]	[405 885 405 675]
136.815	0.2	3479632	3479871	BlankScreen	VGS	20	2	False	lime	460	[1035 1515  405  675]	[405 885 405 675]
137.054	1.0	3479871	3480871	ELCue	VGS	20	2	False	lime	460	[1035 1515  405  675]	[405 885 405 675]
138.461	2.0	3481278	3483306	ShowFixation	ANTI	21	2	False	red	600	[ 90 570 405 675]	[1350 1830  405  675]
140.489	0.2	3483306	3483541	BlankScreen	ANTI	21	2	False	red	600	[ 90 570 405 675]	[1350 1830  405  675]
140.724	1.0	3483541	3484541	ELCue	ANTI	21	2	False	red	600	[ 90 570 405 675]	[1350 1830  405  675]
142.133	2.0	3484950	3486976	ShowFixation	VGS	22	2	False	lime	180	[405 885 405 675]	[1035 1515  405  675]
144.159	0.2	3486976	3487212	BlankScreen	VGS	22	2	False	lime	180	[405 885 405 675]	[1035 1515  405  675]
144.395	1.0	3487212	3488212	ELCue	VGS	22	2	False	lime	180	[405 885 405 675]	[1035 1515  405  675]
145.801	6.0	3488618	3494646	ShowFixation	VGS	23	2	False	lime	460	[1035 1515  405  675]	[405 885 405 675]
151.829	0.2	3494646	3494886	BlankScreen	VGS	23	2	False	lime	460	[1035 1515  405  675]	[405 885 405 675]
152.069	1.0	3494886	3495886	ELCue	VGS	23	2	False	lime	460	[1035 1515  405  675]	[405 885 405 675]
153.472	2.0	3496289	3498321	ShowFixation	VGS	24	2	False	lime	600	[1350 1830  405  675]	[ 90 570 405 675]
155.504	0.2	3498321	3498556	BlankScreen	VGS	24	2	False	lime	600	[1350 1830  405  675]	[ 90 570 405 675]
155.739	1.0	3498556	3499556	ELCue	VGS	24	2	False	lime	600	[1350 1830  405  675]	[ 90 570 405 675]
157.148	6.0	3499965	3505991	ShowFixation	VGS	25	2	False	lime	600	[1350 1830  405  675]	[ 90 570 405 675]
163.174	0.2	3505991	3506230	BlankScreen	VGS	25	2	False	lime	600	[1350 1830  405  675]	[ 90 570 405 675]
163.413	1.0	3506230	3507230	ELCue	VGS	25	2	False	lime	600	[1350 1830  405  675]	[ 90 570 405 675]
164.817	2.0	3507634	3509665	ShowFixation	ANTI	26	2	False	red	460	[405 885 405 675]	[1035 1515  405  675]
166.848	0.2	3509665	3509901	BlankScreen	ANTI	26	2	False	red	460	[405 885 405 675]	[1035 1515  405  675]
167.084	1.0	3509901	3510901	ELCue	ANTI	26	2	False	red	460	[405 885 405 675]	[1035 1515  405  675]
168.492	2.0	3511309	3513336	ShowFixation	ANTI	27	2	False	red	600	[ 90 570 405 675]	[1350 1830  405  675]
170.519	0.2	3513336	3513571	BlankScreen	ANTI	27	2	False	red	600	[ 90 570 405 675]	[1350 1830  405  675]
170.754	1.0	3513571	3514571	ELCue	ANTI	27	2	False	red	600	[ 90 570 405 675]	[1350 1830  405  675]
172.163	6.0	3514980	3521006	ShowFixation	ANTI	28	2	False	red	460	[405 885 405 675]	[1035 1515  405  675]
178.189	0.2	3521006	3521245	BlankScreen	ANTI	28	2	False	red	460	[405 885 405 675]	[1035 1515  405  675]
178.428	1.0	3521245	3522245	ELCue	ANTI	28	2	False	red	460	[405 885 405 675]	[1035 1515  405  675]
179.84	6.0	3522657	3528697	ShowFixation	ANTI	29	2	False	red	600	[ 90 570 405 675]	[1350 1830  405  675]
185.88	0.2	3528697	3528936	BlankScreen	ANTI	29	2	False	red	600	[ 90 570 405 675]	[1350 1830  405  675]
186.119	1.0	3528936	3529936	ELCue	ANTI	29	2	False	red	600	[ 90 570 405 675]	[1350 1830  405  675]
187.526	6.0	3530343	3536372	ShowFixation	VGS	30	2	False	lime	600	[1350 1830  405  675]	[ 90 570 405 675]
193.555	0.2	3536372	3536611	BlankScreen	VGS	30	2	False	lime	600	[1350 1830  405  675]	[ 90 570 405 675]
193.794	1.0	3536611	3537611	ELCue	VGS	30	2	False	lime	600	[1350 1830  405  675]	[ 90 570 405 675]
195.2	2.0	3538017	3540046	ShowFixation	VGS	31	2	False	lime	40	[ 90 570 405 675]	[1350 1830  405  675]
197.229	0.2	3540046	3540282	BlankScreen	VGS	31	2	False	lime	40	[ 90 570 405 675]	[1350 1830  405  675]
197.465	1.0	3540282	3541282	ELCue	VGS	31	2	False	lime	40	[ 90 570 405 675]	[1350 1830  405  675]
198.873	6.0	3541690	3547715	ShowFixation	VGS	32	2	False	lime	40	[ 90 570 405 675]	[1350 1830  405  675]
204.899	0.2	3547716	3547955	BlankScreen	VGS	32	2	False	lime	40	[ 90 570 405 675]	[1350 1830  405  675]
205.138	1.0	3547955	3548955	ELCue	VGS	32	2	False	lime	40	[ 90 570 405 675]	[1350 1830  405  675]
206.53	2.0	3549347	3551373	ShowFixation	VGS	33	2	False	lime	460	[1035 1515  405  675]	[405 885 405 675]
208.557	0.2	3551374	3551608	BlankScreen	VGS	33	2	False	lime	460	[1035 1515  405  675]	[405 885 405 675]
208.791	1.0	3551608	3552608	ELCue	VGS	33	2	False	lime	460	[1035 1515  405  675]	[405 885 405 675]
210.2	6.0	3553017	3559044	ShowFixation	ANTI	34	2	False	red	180	[1035 1515  405  675]	[405 885 405 675]
216.227	0.2	3559044	3559283	BlankScreen	ANTI	34	2	False	red	180	[1035 1515  405  675]	[405 885 405 675]
216.467	1.0	3559284	3560284	ELCue	ANTI	34	2	False	red	180	[1035 1515  405  675]	[405 885 405 675]
217.874	6.0	3560691	3566719	ShowFixation	ANTI	35	2	False	red	40	[1350 1830  405  675]	[ 90 570 405 675]
223.902	0.2	3566719	3566958	BlankScreen	ANTI	35	2	False	red	40	[1350 1830  405  675]	[ 90 570 405 675]
224.141	1.0	3566958	3567958	ELCue	ANTI	35	2	False	red	40	[1350 1830  405  675]	[ 90 570 405 675]
225.544	2.0	3568361	3570393	ShowFixation	VGS	36	2	False	lime	460	[1035 1515  405  675]	[405 885 405 675]
227.576	0.2	3570393	3570628	BlankScreen	VGS	36	2	False	lime	460	[1035 1515  405  675]	[405 885 405 675]
227.811	1.0	3570628	3571628	ELCue	VGS	36	2	False	lime	460	[1035 1515  405  675]	[405 885 405 675]
229.22	2.0	3572037	3574063	ShowFixation	VGS	37	2	False	lime	600	[1350 1830  405  675]	[ 90 570 405 675]
231.246	0.2	3574063	3574298	BlankScreen	VGS	37	2	False	lime	600	[1350 1830  405  675]	[ 90 570 405 675]
231.481	1.0	3574298	3575298	ELCue	VGS	37	2	False	lime	600	[1350 1830  405  675]	[ 90 570 405 675]
232.889	2.0	3575706	3577733	ShowFixation	ANTI	38	2	False	red	40	[1350 1830  405  675]	[ 90 570 405 675]
234.916	0.2	3577733	3577969	BlankScreen	ANTI	38	2	False	red	40	[1350 1830  405  675]	[ 90 570 405 675]
235.152	1.0	3577969	3578969	ELCue	ANTI	38	2	False	red	40	[1350 1830  405  675]	[ 90 570 405 675]
236.553	6.0	3579370	3585404	ShowFixation	VGS	39	2	False	lime	40	[ 90 570 405 675]	[1350 1830  405  675]
242.587	0.2	3585404	3585643	BlankScreen	VGS	39	2	False	lime	40	[ 90 570 405 675]	[1350 1830  405  675]
242.826	1.0	3585643	3586643	ELCue	VGS	39	2	False	lime	40	[ 90 570 405 675]	[1350 1830  405  675]
244.232	2.0	3587049	3589078	ShowFixation	VGS	40	2	False	lime	40	[ 90 570 405 675]	[1350 1830  405  675]
246.261	0.2	3589078	3589313	BlankScreen	VGS	40	2	False	lime	40	[ 90 570 405 675]	[1350 1830  405  675]
246.496	1.0	3589313	3590313	ELCue	VGS	40	2	False	lime	40	[ 90 570 405 675]	[1350 1830  405  675]
247.904	6.0	3590721	3596748	ShowFixation	ANTI	41	2	False	red	600	[ 90 570 405 675]	[1350 1830  405  675]
253.931	0.2	3596748	3596987	BlankScreen	ANTI	41	2	False	red	600	[ 90 570 405 675]	[1350 1830  405  675]
254.17	1.0	3596987	3597987	ELCue	ANTI	41	2	False	red	600	[ 90 570 405 675]	[1350 1830  405  675]
255.58	6.0	3598397	3604422	ShowFixation	VGS	42	2	False	lime	180	[405 885 405 675]	[1035 1515  405  675]
261.605	0.2	3604422	3604662	BlankScreen	VGS	42	2	False	lime	180	[405 885 405 675]	[1035 1515  405  675]
261.845	1.0	3604662	3605662	ELCue	VGS	42	2	False	lime	180	[405 885 405 675]	[1035 1515  405  675]
263.254	2.0	3606071	3608097	ShowFixation	ANTI	43	2	False	red	460	[405 885 405 675]	[1035 1515  405  675]
265.28	0.2	3608097	3608332	BlankScreen	ANTI	43	2	False	red	460	[405 885 405 675]	[1035 1515  405  675]
265.515	1.0	3608332	3609332	ELCue	ANTI	43	2	False	red	460	[405 885 405 675]	[1035 1515  405  675]
266.906	6.0	3609723	3615750	ShowFixation	VGS	44	2	False	lime	180	[405 885 405 675]	[1035 1515  405  675]
272.933	0.2	3615750	3615990	BlankScreen	VGS	44	2	False	lime	180	[405 885 405 675]	[1035 1515  405  675]
273.173	1.0	3615990	3616990	ELCue	VGS	44	2	False	lime	180	[405 885 405 675]	[1035 1515  405  675]
274.582	2.0	3617399	3619424	ShowFixation	VGS	45	2	False	lime	180	[405 885 405 675]	[1035 1515  405  675]
276.607	0.2	3619424	3619660	BlankScreen	VGS	45	2	False	lime	180	[405 885 405 675]	[1035 1515  405  675]
276.843	1.0	3619660	3620660	ELCue	VGS	45	2	False	lime	180	[405 885 405 675]	[1035 1515  405  675]
278.23	6.0	3621047	3627078	ShowFixation	ANTI	46	2	False	red	40	[1350 1830  405  675]	[ 90 570 405 675]
284.261	0.2	3627078	3627317	BlankScreen	ANTI	46	2	False	red	40	[1350 1830  405  675]	[ 90 570 405 675]
284.5	1.0	3627317	3628317	ELCue	ANTI	46	2	False	red	40	[1350 1830  405  675]	[ 90 570 405 675]
285.913	2.0	3628730	3630769	ShowFixation	ANTI	47	2	False	red	180	[1035 1515  405  675]	[405 885 405 675]
287.952	0.2	3630769	3631004	BlankScreen	ANTI	47	2	False	red	180	[1035 1515  405  675]	[405 885 405 675]
288.187	1.0	3631004	3632004	ELCue	ANTI	47	2	False	red	180	[1035 1515  405  675]	[405 885 405 675]
289.595	6.0	3632412	3638439	ShowFixation	ANTI	48	2	False	red	460	[405 885 405 675]	[1035 1515  405  675]
295.622	0.2	3638439	3638679	BlankScreen	ANTI	48	2	False	red	460	[405 885 405 675]	[1035 1515  405  675]
295.863	1.0	3638680	3639680	ELCue	ANTI	48	2	False	red	460	[405 885 405 675]	[1035 1515  405  675]
328.433	6.0	3671250	3677279	ShowFixation	ANTI	49	3	False	red	40	[1350 1830  405  675]	[ 90 570 405 675]
334.462	0.2	3677279	3677518	BlankScreen	ANTI	49	3	False	red	40	[1350 1830  405  675]	[ 90 570 405 675]
334.701	1.0	3677518	3678518	ELCue	ANTI	49	3	False	red	40	[1350 1830  405  675]	[ 90 570 405 675]
336.103	6.0	3678920	3684953	ShowFixation	VGS	50	3	False	lime	600	[1350 1830  405  675]	[ 90 570 405 675]
342.136	0.2	3684953	3685192	BlankScreen	VGS	50	3	False	lime	600	[1350 1830  405  675]	[ 90 570 405 675]
342.375	1.0	3685192	3686192	ELCue	VGS	50	3	False	lime	600	[1350 1830  405  675]	[ 90 570 405 675]
343.782	2.0	3686599	3688627	ShowFixation	VGS	51	3	False	lime	180	[405 885 405 675]	[1035 1515  405  675]
345.81	0.2	3688627	3688862	BlankScreen	VGS	51	3	False	lime	180	[405 885 405 675]	[1035 1515  405  675]
346.045	1.0	3688862	3689862	ELCue	VGS	51	3	False	lime	180	[405 885 405 675]	[1035 1515  405  675]
347.451	6.0	3690268	3696297	ShowFixation	VGS	52	3	False	lime	40	[ 90 570 405 675]	[1350 1830  405  675]
353.48	0.2	3696297	3696537	BlankScreen	VGS	52	3	False	lime	40	[ 90 570 405 675]	[1350 1830  405  675]
353.72	1.0	3696537	3697537	ELCue	VGS	52	3	False	lime	40	[ 90 570 405 675]	[1350 1830  405  675]
355.126	6.0	3697943	3703972	ShowFixation	ANTI	53	3	False	red	180	[1035 1515  405  675]	[405 885 405 675]
361.155	0.2	3703972	3704211	BlankScreen	ANTI	53	3	False	red	180	[1035 1515  405  675]	[405 885 405 675]
361.394	1.0	3704211	3705211	ELCue	ANTI	53	3	False	red	180	[1035 1515  405  675]	[405 885 405 675]
362.793	6.0	3705610	3711646	ShowFixation	ANTI	54	3	False	red	600	[ 90 570 405 675]	[1350 1830  405  675]
368.829	0.2	3711646	3711885	BlankScreen	ANTI	54	3	False	red	600	[ 90 570 405 675]	[1350 1830  405  675]
369.068	1.0	3711885	3712885	ELCue	ANTI	54	3	False	red	600	[ 90 570 405 675]	[1350 1830  405  675]
370.475	6.0	3713292	3719320	ShowFixation	ANTI	55	3	False	red	40	[1350 1830  405  675]	[ 90 570 405 675]
376.503	0.2	3719320	3719559	BlankScreen	ANTI	55	3	False	red	40	[1350 1830  405  675]	[ 90 570 405 675]
376.742	1.0	3719559	3720559	ELCue	ANTI	55	3	False	red	40	[1350 1830  405  675]	[ 90 570 405 675]
378.149	6.0	3720966	3726994	ShowFixation	VGS	56	3	False	lime	180	[405 885 405 675]	[1035 1515  405  675]
384.177	0.2	3726994	3727234	BlankScreen	VGS	56	3	False	lime	180	[405 885 405 675]	[1035 1515  405  675]
384.417	1.0	3727234	3728234	ELCue	VGS	56	3	False	lime	180	[405 885 405 675]	[1035 1515  405  675]
385.828	2.0	3728645	3730685	ShowFixation	ANTI	57	3	False	red	180	[1035 1515  405  675]	[405 885 405 675]
387.868	0.2	3730685	3730921	BlankScreen	ANTI	57	3	False	red	180	[1035 1515  405  675]	[405 885 405 675]
388.104	1.0	3730921	3731921	ELCue	ANTI	57	3	False	red	180	[1035 1515  405  675]	[405 885 405 675]
389.515	2.0	3732332	3734372	ShowFixation	ANTI	58	3	False	red	180	[1035 1515  405  675]	[405 885 405 675]
391.555	0.2	3734372	3734608	BlankScreen	ANTI	58	3	False	red	180	[1035 1515  405  675]	[405 885 405 675]
391.791	1.0	3734608	3735608	ELCue	ANTI	58	3	False	red	180	[1035 1515  405  675]	[405 885 405 675]
393.194	2.0	3736011	3738042	ShowFixation	ANTI	59	3	False	red	600	[ 90 570 405 675]	[1350 1830  405  675]
395.225	0.2	3738042	3738278	BlankScreen	ANTI	59	3	False	red	600	[ 90 570 405 675]	[1350 1830  405  675]
395.461	1.0	3738278	3739278	ELCue	ANTI	59	3	False	red	600	[ 90 570 405 675]	[1350 1830  405  675]
396.872	6.0	3739689	3745713	ShowFixation	VGS	60	3	False	lime	460	[1035 1515  405  675]	[405 885 405 675]
402.896	0.2	3745713	3745952	BlankScreen	VGS	60	3	False	lime	460	[1035 1515  405  675]	[405 885 405 675]
403.136	1.0	3745953	3746953	ELCue	VGS	60	3	False	lime	460	[1035 1515  405  675]	[405 885 405 675]
404.542	2.0	3747359	3749387	ShowFixation	VGS	61	3	False	lime	460	[1035 1515  405  675]	[405 885 405 675]
406.571	0.2	3749388	3749623	BlankScreen	VGS	61	3	False	lime	460	[1035 1515  405  675]	[405 885 405 675]
406.806	1.0	3749623	3750623	ELCue	VGS	61	3	False	lime	460	[1035 1515  405  675]	[405 885 405 675]
408.216	6.0	3751033	3757058	ShowFixation	ANTI	62	3	False	red	460	[405 885 405 675]	[1035 1515  405  675]
414.241	0.2	3757058	3757298	BlankScreen	ANTI	62	3	False	red	460	[405 885 405 675]	[1035 1515  405  675]
414.481	1.0	3757298	3758298	ELCue	ANTI	62	3	False	red	460	[405 885 405 675]	[1035 1515  405  675]
415.894	2.0	3758711	3760749	ShowFixation	ANTI	63	3	False	red	600	[ 90 570 405 675]	[1350 1830  405  675]
417.932	0.2	3760749	3760985	BlankScreen	ANTI	63	3	False	red	600	[ 90 570 405 675]	[1350 1830  405  675]
418.168	1.0	3760985	3761985	ELCue	ANTI	63	3	False	red	600	[ 90 570 405 675]	[1350 1830  405  675]
419.574	6.0	3762391	3768420	ShowFixation	ANTI	64	3	False	red	600	[ 90 570 405 675]	[1350 1830  405  675]
425.603	0.2	3768420	3768659	BlankScreen	ANTI	64	3	False	red	600	[ 90 570 405 675]	[1350 1830  405  675]
425.842	1.0	3768659	3769659	ELCue	ANTI	64	3	False	red	600	[ 90 570 405 675]	[1350 1830  405  675]
427.249	2.0	3770066	3772094	ShowFixation	VGS	65	3	False	lime	40	[ 90 570 405 675]	[1350 1830  405  675]
429.277	0.2	3772094	3772329	BlankScreen	VGS	65	3	False	lime	40	[ 90 570 405 675]	[1350 1830  405  675]
429.512	1.0	3772329	3773329	ELCue	VGS	65	3	False	lime	40	[ 90 570 405 675]	[1350 1830  405  675]
430.905	6.0	3773722	3779747	ShowFixation	ANTI	66	3	False	red	460	[405 885 405 675]	[1035 1515  405  675]
436.93	0.2	3779747	3779987	BlankScreen	ANTI	66	3	False	red	460	[405 885 405 675]	[1035 1515  405  675]
437.17	1.0	3779987	3780987	ELCue	ANTI	66	3	False	red	460	[405 885 405 675]	[1035 1515  405  675]
438.576	6.0	3781393	3787422	ShowFixation	VGS	67	3	False	lime	40	[ 90 570 405 675]	[1350 1830  405  675]
444.605	0.2	3787422	3787661	BlankScreen	VGS	67	3	False	lime	40	[ 90 570 405 675]	[1350 1830  405  675]
444.844	1.0	3787661	3788661	ELCue	VGS	67	3	False	lime	40	[ 90 570 405 675]	[1350 1830  405  675]
446.236	2.0	3789053	3791079	ShowFixation	VGS	68	3	False	lime	180	[405 885 405 675]	[1035 1515  405  675]
448.262	0.2	3791079	3791314	BlankScreen	VGS	68	3	False	lime	180	[405 885 405 675]	[1035 1515  405  675]
448.497	1.0	3791314	3792314	ELCue	VGS	68	3	False	lime	180	[405 885 405 675]	[1035 1515  405  675]
449.906	6.0	3792723	3798749	ShowFixation	ANTI	69	3	False	red	180	[1035 1515  405  675]	[405 885 405 675]
455.932	0.2	3798749	3798989	BlankScreen	ANTI	69	3	False	red	180	[1035 1515  405  675]	[405 885 405 675]
456.172	1.0	3798989	3799989	ELCue	ANTI	69	3	False	red	180	[1035 1515  405  675]	[405 885 405 675]
457.578	2.0	3800395	3802424	ShowFixation	VGS	70	3	False	lime	40	[ 90 570 405 675]	[1350 1830  405  675]
459.607	0.2	3802424	3802659	BlankScreen	VGS	70	3	False	lime	40	[ 90 570 405 675]	[1350 1830  405  675]
459.842	1.0	3802659	3803659	ELCue	VGS	70	3	False	lime	40	[ 90 570 405 675]	[1350 1830  405  675]
461.249	2.0	3804066	3806094	ShowFixation	ANTI	71	3	False	red	460	[405 885 405 675]	[1035 1515  405  675]
463.277	0.2	3806094	3806329	BlankScreen	ANTI	71	3	False	red	460	[405 885 405 675]	[1035 1515  405  675]
463.512	1.0	3806329	3807329	ELCue	ANTI	71	3	False	red	460	[405 885 405 675]	[1035 1515  405  675]
464.915	2.0	3807732	3809764	ShowFixation	VGS	72	3	False	lime	460	[1035 1515  405  675]	[405 885 405 675]
466.947	0.2	3809764	3810000	BlankScreen	VGS	72	3	False	lime	460	[1035 1515  405  675]	[405 885 405 675]
467.183	1.0	3810000	3811000	ELCue	VGS	72	3	False	lime	460	[1035 1515  405  675]	[405 885 405 675]
468.589	6.0	3811406	3817435	ShowFixation	VGS	73	3	False	lime	460	[1035 1515  405  675]	[405 885 405 675]
474.618	0.2	3817435	3817674	BlankScreen	VGS	73	3	False	lime	460	[1035 1515  405  675]	[405 885 405 675]
474.857	1.0	3817674	3818674	ELCue	VGS	73	3	False	lime	460	[1035 1515  405  675]	[405 885 405 675]
476.257	2.0	3819074	3821109	ShowFixation	ANTI	74	3	False	red	460	[405 885 405 675]	[1035 1515  405  675]
478.292	0.2	3821109	3821344	BlankScreen	ANTI	74	3	False	red	460	[405 885 405 675]	[1035 1515  405  675]
478.527	1.0	3821344	3822344	ELCue	ANTI	74	3	False	red	460	[405 885 405 675]	[1035 1515  405  675]
479.934	6.0	3822751	3828779	ShowFixation	VGS	75	3	False	lime	600	[1350 1830  405  675]	[ 90 570 405 675]
485.962	0.2	3828779	3829018	BlankScreen	VGS	75	3	False	lime	600	[1350 1830  405  675]	[ 90 570 405 675]
486.201	1.0	3829018	3830018	ELCue	VGS	75	3	False	lime	600	[1350 1830  405  675]	[ 90 570 405 675]
487.611	6.0	3830428	3836453	ShowFixation	VGS	76	3	False	lime	180	[405 885 405 675]	[1035 1515  405  675]
493.636	0.2	3836453	3836693	BlankScreen	VGS	76	3	False	lime	180	[405 885 405 675]	[1035 1515  405  675]
493.876	1.0	3836693	3837693	ELCue	VGS	76	3	False	lime	180	[405 885 405 675]	[1035 1515  405  675]
495.281	2.0	3838098	3840128	ShowFixation	VGS	77	3	False	lime	600	[1350 1830  405  675]	[ 90 570 405 675]
497.311	0.2	3840128	3840363	BlankScreen	VGS	77	3	False	lime	600	[1350 1830  405  675]	[ 90 570 405 675]
497.546	1.0	3840363	3841363	ELCue	VGS	77	3	False	lime	600	[1350 1830  405  675]	[ 90 570 405 675]
498.92	2.0	3841737	3843764	ShowFixation	ANTI	78	3	False	red	40	[1350 1830  405  675]	[ 90 570 405 675]
500.947	0.2	3843764	3844000	BlankScreen	ANTI	78	3	False	red	40	[1350 1830  405  675]	[ 90 570 405 675]
501.183	1.0	3844000	3845000	ELCue	ANTI	78	3	False	red	40	[1350 1830  405  675]	[ 90 570 405 675]
502.591	2.0	3845408	3847435	ShowFixation	VGS	79	3	False	lime	600	[1350 1830  405  675]	[ 90 570 405 675]
504.618	0.2	3847435	3847670	BlankScreen	VGS	79	3	False	lime	600	[1350 1830  405  675]	[ 90 570 405 675]
504.853	1.0	3847670	3848670	ELCue	VGS	79	3	False	lime	600	[1350 1830  405  675]	[ 90 570 405 675]
506.247	2.0	3849064	3851088	ShowFixation	ANTI	80	3	False	red	40	[1350 1830  405  675]	[ 90 570 405 675]
508.272	0.2	3851089	3851324	BlankScreen	ANTI	80	3	False	red	40	[1350 1830  405  675]	[ 90 570 405 675]
508.507	1.0	3851324	3852324	ELCue	ANTI	80	3	False	red	40	[1350 1830  405  675]	[ 90 570 405 675]
518.43	2.0	3861247	3863284	ShowFixation	VGS	81	4	False	lime	180	[405 885 405 675]	[1035 1515  405  675]
520.468	0.2	3863285	3863519	BlankScreen	VGS	81	4	False	lime	180	[405 885 405 675]	[1035 1515  405  675]
520.702	1.0	3863519	3864519	ELCue	VGS	81	4	False	lime	180	[405 885 405 675]	[1035 1515  405  675]
522.105	2.0	3864922	3866954	ShowFixation	VGS	82	4	False	lime	460	[1035 1515  405  675]	[405 885 405 675]
524.137	0.2	3866954	3867189	BlankScreen	VGS	82	4	False	lime	460	[1035 1515  405  675]	[405 885 405 675]
524.372	1.0	3867189	3868189	ELCue	VGS	82	4	False	lime	460	[1035 1515  405  675]	[405 885 405 675]
525.785	2.0	3868602	3870641	ShowFixation	ANTI	83	4	False	red	600	[ 90 570 405 675]	[1350 1830  405  675]
527.824	0.2	3870641	3870876	BlankScreen	ANTI	83	4	False	red	600	[ 90 570 405 675]	[1350 1830  405  675]
528.06	1.0	3870877	3871877	ELCue	ANTI	83	4	False	red	600	[ 90 570 405 675]	[1350 1830  405  675]
529.469	2.0	3872286	3874311	ShowFixation	ANTI	84	4	False	red	600	[ 90 570 405 675]	[1350 1830  405  675]
531.494	0.2	3874311	3874547	BlankScreen	ANTI	84	4	False	red	600	[ 90 570 405 675]	[1350 1830  405  675]
531.73	1.0	3874547	3875547	ELCue	ANTI	84	4	False	red	600	[ 90 570 405 675]	[1350 1830  405  675]
533.133	6.0	3875950	3881982	ShowFixation	VGS	85	4	False	lime	40	[ 90 570 405 675]	[1350 1830  405  675]
539.165	0.2	3881982	3882221	BlankScreen	VGS	85	4	False	lime	40	[ 90 570 405 675]	[1350 1830  405  675]
539.404	1.0	3882221	3883221	ELCue	VGS	85	4	False	lime	40	[ 90 570 405 675]	[1350 1830  405  675]
540.776	2.0	3883593	3885622	ShowFixation	ANTI	86	4	False	red	460	[405 885 405 675]	[1035 1515  405  675]
542.805	0.2	3885622	3885858	BlankScreen	ANTI	86	4	False	red	460	[405 885 405 675]	[1035 1515  405  675]
543.041	1.0	3885858	3886858	ELCue	ANTI	86	4	False	red	460	[405 885 405 675]	[1035 1515  405  675]
544.449	6.0	3887266	3893294	ShowFixation	VGS	87	4	False	lime	40	[ 90 570 405 675]	[1350 1830  405  675]
550.477	0.2	3893294	3893533	BlankScreen	VGS	87	4	False	lime	40	[ 90 570 405 675]	[1350 1830  405  675]
550.716	1.0	3893533	3894533	ELCue	VGS	87	4	False	lime	40	[ 90 570 405 675]	[1350 1830  405  675]
552.125	6.0	3894942	3900968	ShowFixation	ANTI	88	4	False	red	40	[1350 1830  405  675]	[ 90 570 405 675]
558.151	0.2	3900968	3901207	BlankScreen	ANTI	88	4	False	red	40	[1350 1830  405  675]	[ 90 570 405 675]
558.39	1.0	3901207	3902207	ELCue	ANTI	88	4	False	red	40	[1350 1830  405  675]	[ 90 570 405 675]
559.799	6.0	3902616	3908642	ShowFixation	VGS	89	4	False	lime	460	[1035 1515  405  675]	[405 885 405 675]
565.825	0.2	3908642	3908881	BlankScreen	VGS	89	4	False	lime	460	[1035 1515  405  675]	[405 885 405 675]
566.064	1.0	3908881	3909881	ELCue	VGS	89	4	False	lime	460	[1035 1515  405  675]	[405 885 405 675]
567.47	2.0	3910287	3912316	ShowFixation	ANTI	90	4	False	red	40	[1350 1830  405  675]	[ 90 570 405 675]
569.499	0.2	3912316	3912552	BlankScreen	ANTI	90	4	False	red	40	[1350 1830  405  675]	[ 90 570 405 675]
569.735	1.0	3912552	3913552	ELCue	ANTI	90	4	False	red	40	[1350 1830  405  675]	[ 90 570 405 675]
571.14	2.0	3913957	3915987	ShowFixation	ANTI	91	4	False	red	180	[1035 1515  405  675]	[405 885 405 675]
573.17	0.2	3915987	3916222	BlankScreen	ANTI	91	4	False	red	180	[1035 1515  405  675]	[405 885 405 675]
573.405	1.0	3916222	3917222	ELCue	ANTI	91	4	False	red	180	[1035 1515  405  675]	[405 885 405 675]
574.877	6.0	3917694	3923724	ShowFixation	ANTI	92	4	False	red	40	[1350 1830  405  675]	[ 90 570 405 675]
580.907	0.2	3923724	3923963	BlankScreen	ANTI	92	4	False	red	40	[1350 1830  405  675]	[ 90 570 405 675]
581.146	1.0	3923963	3924963	ELCue	ANTI	92	4	False	red	40	[1350 1830  405  675]	[ 90 570 405 675]
582.551	6.0	3925368	3931398	ShowFixation	ANTI	93	4	False	red	180	[1035 1515  405  675]	[405 885 405 675]
588.581	0.2	3931398	3931637	BlankScreen	ANTI	93	4	False	red	180	[1035 1515  405  675]	[405 885 405 675]
588.82	1.0	3931637	3932637	ELCue	ANTI	93	4	False	red	180	[1035 1515  405  675]	[405 885 405 675]
590.226	6.0	3933043	3939072	ShowFixation	ANTI	94	4	False	red	460	[405 885 405 675]	[1035 1515  405  675]
596.255	0.2	3939072	3939311	BlankScreen	ANTI	94	4	False	red	460	[405 885 405 675]	[1035 1515  405  675]
596.494	1.0	3939311	3940311	ELCue	ANTI	94	4	False	red	460	[405 885 405 675]	[1035 1515  405  675]
597.865	6.0	3940682	3946713	ShowFixation	VGS	95	4	False	lime	600	[1350 1830  405  675]	[ 90 570 405 675]
603.896	0.2	3946713	3946952	BlankScreen	VGS	95	4	False	lime	600	[1350 1830  405  675]	[ 90 570 405 675]
604.135	1.0	3946952	3947952	ELCue	VGS	95	4	False	lime	600	[1350 1830  405  675]	[ 90 570 405 675]
605.54	6.0	3948357	3954387	ShowFixation	ANTI	96	4	False	red	600	[ 90 570 405 675]	[1350 1830  405  675]
611.57	0.2	3954387	3954628	BlankScreen	ANTI	96	4	False	red	600	[ 90 570 405 675]	[1350 1830  405  675]
611.811	1.0	3954628	3955628	ELCue	ANTI	96	4	False	red	600	[ 90 570 405 675]	[1350 1830  405  675]
613.215	2.0	3956032	3958063	ShowFixation	ANTI	97	4	False	red	460	[405 885 405 675]	[1035 1515  405  675]
615.246	0.2	3958063	3958297	BlankScreen	ANTI	97	4	False	red	460	[405 885 405 675]	[1035 1515  405  675]
615.48	1.0	3958297	3959297	ELCue	ANTI	97	4	False	red	460	[405 885 405 675]	[1035 1515  405  675]
616.891	2.0	3959708	3961748	ShowFixation	ANTI	98	4	False	red	180	[1035 1515  405  675]	[405 885 405 675]
618.932	0.2	3961749	3961984	BlankScreen	ANTI	98	4	False	red	180	[1035 1515  405  675]	[405 885 405 675]
619.167	1.0	3961984	3962984	ELCue	ANTI	98	4	False	red	180	[1035 1515  405  675]	[405 885 405 675]
620.576	2.0	3963393	3965419	ShowFixation	VGS	99	4	False	lime	180	[405 885 405 675]	[1035 1515  405  675]
622.602	0.2	3965419	3965654	BlankScreen	VGS	99	4	False	lime	180	[405 885 405 675]	[1035 1515  405  675]
622.837	1.0	3965654	3966654	ELCue	VGS	99	4	False	lime	180	[405 885 405 675]	[1035 1515  405  675]
624.242	2.0	3967059	3969089	ShowFixation	VGS	100	4	False	lime	600	[1350 1830  405  675]	[ 90 570 405 675]
626.272	0.2	3969089	3969324	BlankScreen	VGS	100	4	False	lime	600	[1350 1830  405  675]	[ 90 570 405 675]
626.507	1.0	3969324	3970324	ELCue	VGS	100	4	False	lime	600	[1350 1830  405  675]	[ 90 570 405 675]
627.913	6.0	3970730	3976759	ShowFixation	VGS	101	4	False	lime	180	[405 885 405 675]	[1035 1515  405  675]
633.942	0.2	3976759	3976999	BlankScreen	VGS	101	4	False	lime	180	[405 885 405 675]	[1035 1515  405  675]
634.182	1.0	3976999	3977999	ELCue	VGS	101	4	False	lime	180	[405 885 405 675]	[1035 1515  405  675]
635.592	2.0	3978409	3980434	ShowFixation	ANTI	102	4	False	red	40	[1350 1830  405  675]	[ 90 570 405 675]
637.617	0.2	3980434	3980669	BlankScreen	ANTI	102	4	False	red	40	[1350 1830  405  675]	[ 90 570 405 675]
637.852	1.0	3980669	3981669	ELCue	ANTI	102	4	False	red	40	[1350 1830  405  675]	[ 90 570 405 675]
639.26	6.0	3982077	3988104	ShowFixation	ANTI	103	4	False	red	180	[1035 1515  405  675]	[405 885 405 675]
645.287	0.2	3988104	3988343	BlankScreen	ANTI	103	4	False	red	180	[1035 1515  405  675]	[405 885 405 675]
645.526	1.0	3988343	3989343	ELCue	ANTI	103	4	False	red	180	[1035 1515  405  675]	[405 885 405 675]
646.934	6.0	3989751	3995778	ShowFixation	ANTI	104	4	False	red	460	[405 885 405 675]	[1035 1515  405  675]
652.961	0.2	3995778	3996017	BlankScreen	ANTI	104	4	False	red	460	[405 885 405 675]	[1035 1515  405  675]
653.2	1.0	3996017	3997017	ELCue	ANTI	104	4	False	red	460	[405 885 405 675]	[1035 1515  405  675]
654.608	2.0	3997425	3999453	ShowFixation	VGS	105	4	False	lime	460	[1035 1515  405  675]	[405 885 405 675]
656.636	0.2	3999453	3999689	BlankScreen	VGS	105	4	False	lime	460	[1035 1515  405  675]	[405 885 405 675]
656.872	1.0	3999689	4000689	ELCue	VGS	105	4	False	lime	460	[1035 1515  405  675]	[405 885 405 675]
658.276	6.0	4001093	4007124	ShowFixation	VGS	106	4	False	lime	180	[405 885 405 675]	[1035 1515  405  675]
664.307	0.2	4007124	4007363	BlankScreen	VGS	106	4	False	lime	180	[405 885 405 675]	[1035 1515  405  675]
664.546	1.0	4007363	4008363	ELCue	VGS	106	4	False	lime	180	[405 885 405 675]	[1035 1515  405  675]
665.955	2.0	4008772	4010798	ShowFixation	VGS	107	4	False	lime	40	[ 90 570 405 675]	[1350 1830  405  675]
667.981	0.2	4010798	4011033	BlankScreen	VGS	107	4	False	lime	40	[ 90 570 405 675]	[1350 1830  405  675]
668.216	1.0	4011033	4012033	ELCue	VGS	107	4	False	lime	40	[ 90 570 405 675]	[1350 1830  405  675]
669.622	2.0	4012439	4014468	ShowFixation	VGS	108	4	False	lime	600	[1350 1830  405  675]	[ 90 570 405 675]
671.651	0.2	4014468	4014703	BlankScreen	VGS	108	4	False	lime	600	[1350 1830  405  675]	[ 90 570 405 675]
671.886	1.0	4014703	4015703	ELCue	VGS	108	4	False	lime	600	[1350 1830  405  675]	[ 90 570 405 675]
673.288	6.0	4016105	4022138	ShowFixation	VGS	109	4	False	lime	460	[1035 1515  405  675]	[405 885 405 675]
679.321	0.2	4022138	4022378	BlankScreen	VGS	109	4	False	lime	460	[1035 1515  405  675]	[405 885 405 675]
679.561	1.0	4022378	4023378	ELCue	VGS	109	4	False	lime	460	[1035 1515  405  675]	[405 885 405 675]
680.97	2.0	4023787	4025813	ShowFixation	VGS	110	4	False	lime	40	[ 90 570 405 675]	[1350 1830  405  675]
682.996	0.2	4025813	4026048	BlankScreen	VGS	110	4	False	lime	40	[ 90 570 405 675]	[1350 1830  405  675]
683.231	1.0	4026048	4027048	ELCue	VGS	110	4	False	lime	40	[ 90 570 405 675]	[1350 1830  405  675]
684.695	6.0	4027512	4033550	ShowFixation	ANTI	111	4	False	red	600	[ 90 570 405 675]	[1350 1830  405  675]
690.733	0.2	4033550	4033789	BlankScreen	ANTI	111	4	False	red	600	[ 90 570 405 675]	[1350 1830  405  675]
690.972	1.0	4033789	4034789	ELCue	ANTI	111	4	False	red	600	[ 90 570 405 675]	[1350 1830  405  675]
692.378	6.0	4035195	4041224	ShowFixation	VGS	112	4	False	lime	600	[1350 1830  405  675]	[ 90 570 405 675]
698.407	0.2	4041224	4041463	BlankScreen	VGS	112	4	False	lime	600	[1350 1830  405  675]	[ 90 570 405 675]
698.646	1.0	4041463	4042463	ELCue	VGS	112	4	False	lime	600	[1350 1830  405  675]	[ 90 570 405 675]
