participant_id	trial_type	stop_signal_delay	go_reaction_time	correct_go	successful_stop
sub-24017	Stop	0.750	0.000	0	0
sub-24017	Stop	0.800	0.000	0	1
sub-24017	Go	n/a	0.700	0	n/a
sub-24017	Go	n/a	0.452	1	n/a
sub-24017	Stop	0.750	0.000	0	0
sub-24017	Go	n/a	0.233	1	n/a
sub-24017	Stop	0.800	0.000	0	0
sub-24017	Stop	0.850	0.000	0	0
sub-24017	Go	n/a	0.450	1	n/a
sub-24017	Go	n/a	0.490	1	n/a
sub-24017	Go	n/a	0.361	1	n/a
sub-24017	Go	n/a	0.411	1	n/a
sub-24017	Go	n/a	0.353	1	n/a
sub-24017	Stop	0.900	0.000	0	0
sub-24017	Go	n/a	0.420	1	n/a
sub-24017	Go	n/a	0.407	1	n/a
sub-24017	Go	n/a	0.479	0	n/a
sub-24017	Go	n/a	0.380	1	n/a
sub-24017	Go	n/a	0.268	1	n/a
sub-24017	Stop	0.750	0.000	0	0
sub-24017	Go	n/a	0.200	1	n/a
sub-24017	Go	n/a	0.388	1	n/a
sub-24017	Go	n/a	0.243	1	n/a
sub-24017	Stop	0.800	0.000	0	0
sub-24017	Go	n/a	0.490	1	n/a
sub-24017	Stop	0.850	0.000	0	0
sub-24017	Stop	0.900	0.000	0	0
sub-24017	Go	n/a	0.669	1	n/a
sub-24017	Go	n/a	0.464	1	n/a
sub-24017	Stop	0.950	0.000	0	0
sub-24017	Stop	1.000	0.000	0	0
sub-24017	Go	n/a	0.658	1	n/a
sub-24017	Stop	1.000	0.000	0	1
sub-24017	Stop	0.950	0.000	0	1
sub-24017	Go	n/a	0.432	1	n/a
sub-24017	Go	n/a	0.346	1	n/a
sub-24017	Go	n/a	0.485	1	n/a
sub-24017	Go	n/a	0.424	1	n/a
sub-24017	Go	n/a	0.281	1	n/a
sub-24017	Go	n/a	0.407	1	n/a
sub-24017	Stop	0.900	0.000	0	0
sub-24017	Stop	0.950	0.000	0	1
sub-24017	Go	n/a	0.480	1	n/a
sub-24017	Go	n/a	0.367	1	n/a
sub-24017	Go	n/a	0.655	1	n/a
sub-24017	Go	n/a	0.230	0	n/a
sub-24017	Stop	0.900	0.000	0	0
sub-24017	Go	n/a	0.464	1	n/a
sub-24017	Stop	0.950	0.000	0	0
sub-24017	Go	n/a	0.260	1	n/a
sub-24017	Go	n/a	0.610	1	n/a
sub-24017	Go	n/a	0.406	1	n/a
sub-24017	Go	n/a	0.703	1	n/a
sub-24017	Stop	1.000	0.000	0	1
sub-24017	Stop	0.950	0.000	0	0
sub-24017	Go	n/a	0.548	1	n/a
sub-24017	Go	n/a	0.551	1	n/a
sub-24017	Go	n/a	0.469	1	n/a
sub-24017	Go	n/a	0.434	1	n/a
sub-24017	Go	n/a	0.794	1	n/a
sub-24017	Stop	1.000	0.000	0	0
sub-24017	Go	n/a	0.649	1	n/a
sub-24017	Go	n/a	0.398	1	n/a
sub-24017	Go	n/a	0.413	1	n/a
sub-24017	Go	n/a	0.399	1	n/a
sub-24017	Go	n/a	0.466	1	n/a
sub-24017	Go	n/a	0.723	1	n/a
sub-24017	Go	n/a	0.434	1	n/a
sub-24017	Go	n/a	0.473	1	n/a
sub-24017	Go	n/a	0.374	1	n/a
sub-24017	Go	n/a	0.358	1	n/a
sub-24017	Go	n/a	0.374	0	n/a
sub-24017	Go	n/a	0.340	0	n/a
sub-24017	Go	n/a	0.445	1	n/a
sub-24017	Go	n/a	0.460	1	n/a
sub-24017	Go	n/a	0.471	1	n/a
sub-24017	Go	n/a	0.434	1	n/a
sub-24017	Go	n/a	0.347	1	n/a
sub-24017	Go	n/a	0.405	1	n/a
sub-24017	Go	n/a	0.276	1	n/a
sub-24017	Go	n/a	0.541	1	n/a
sub-24017	Stop	1.000	0.000	0	0
sub-24017	Go	n/a	0.442	1	n/a
sub-24017	Go	n/a	0.436	1	n/a
sub-24017	Go	n/a	0.319	1	n/a
sub-24017	Stop	1.000	0.000	0	0
sub-24017	Go	n/a	0.337	1	n/a
sub-24017	Go	n/a	0.514	1	n/a
sub-24017	Stop	1.000	0.000	0	1
sub-24017	Go	n/a	0.449	1	n/a
sub-24017	Stop	0.950	0.000	0	0
sub-24017	Go	n/a	0.336	1	n/a
sub-24017	Go	n/a	0.388	0	n/a
sub-24017	Stop	1.000	0.000	0	0
sub-24017	Go	n/a	0.476	0	n/a
sub-24017	Go	n/a	0.000	0	n/a
sub-24017	Stop	1.000	0.000	0	0
sub-24017	Go	n/a	0.433	1	n/a
sub-24017	Go	n/a	0.561	1	n/a
sub-24017	Go	n/a	0.445	1	n/a
sub-24017	Go	n/a	0.398	1	n/a
sub-24017	Stop	1.000	0.000	0	0
sub-24017	Go	n/a	0.379	1	n/a
sub-24017	Go	n/a	0.380	1	n/a
sub-24017	Stop	0.750	0.000	0	0
sub-24017	Go	n/a	0.349	1	n/a
sub-24017	Stop	0.800	0.000	0	0
sub-24017	Go	n/a	0.400	1	n/a
sub-24017	Go	n/a	0.351	1	n/a
sub-24017	Stop	0.850	0.000	0	0
sub-24017	Stop	0.900	0.000	0	0
sub-24017	Go	n/a	0.359	1	n/a
sub-24017	Go	n/a	0.550	1	n/a
sub-24017	Stop	0.950	0.000	0	1
sub-24017	Go	n/a	0.508	1	n/a
sub-24017	Go	n/a	0.373	1	n/a
sub-24017	Go	n/a	0.418	1	n/a
sub-24017	Go	n/a	0.375	1	n/a
sub-24017	Go	n/a	0.289	1	n/a
sub-24017	Stop	0.900	0.000	0	0
sub-24017	Go	n/a	0.389	1	n/a
sub-24017	Stop	0.950	0.000	0	0
sub-24017	Stop	1.000	0.000	0	0
sub-24017	Stop	1.000	0.000	0	1
sub-24017	Go	n/a	0.454	1	n/a
sub-24017	Go	n/a	0.407	1	n/a
sub-24017	Go	n/a	0.572	1	n/a
sub-24017	Stop	0.950	0.000	0	0
sub-24017	Go	n/a	0.530	1	n/a
sub-24017	Go	n/a	0.400	0	n/a
sub-24017	Go	n/a	0.277	1	n/a
sub-24017	Go	n/a	0.439	1	n/a
sub-24017	Stop	1.000	0.000	0	0
sub-24017	Go	n/a	0.505	1	n/a
sub-24017	Go	n/a	0.465	1	n/a
sub-24017	Go	n/a	0.315	1	n/a
sub-24017	Stop	1.000	0.000	0	1
sub-24017	Go	n/a	0.272	1	n/a
sub-24017	Stop	0.950	0.000	0	0
sub-24017	Stop	1.000	0.000	0	0
sub-24017	Go	n/a	0.513	1	n/a
sub-24017	Stop	1.000	0.000	0	1
sub-24017	Go	n/a	0.484	1	n/a
sub-24017	Go	n/a	0.000	0	n/a
sub-24017	Go	n/a	0.570	1	n/a
sub-24017	Go	n/a	0.348	1	n/a
sub-24017	Go	n/a	0.361	1	n/a
sub-24017	Go	n/a	0.306	1	n/a
sub-24017	Go	n/a	0.269	1	n/a
sub-24017	Go	n/a	0.252	1	n/a
sub-24017	Go	n/a	0.458	1	n/a
sub-24017	Go	n/a	0.279	1	n/a
sub-24017	Go	n/a	0.289	0	n/a
sub-24017	Go	n/a	0.371	1	n/a
sub-24017	Go	n/a	0.302	1	n/a
sub-24017	Go	n/a	0.239	0	n/a
sub-24017	Go	n/a	0.359	1	n/a
sub-24017	Go	n/a	0.368	1	n/a
sub-24017	Go	n/a	0.311	0	n/a
sub-24017	Go	n/a	0.374	1	n/a
sub-24017	Go	n/a	0.310	1	n/a
sub-24017	Go	n/a	0.339	0	n/a
sub-24017	Go	n/a	0.408	1	n/a
sub-24017	Go	n/a	0.351	1	n/a
sub-24017	Stop	0.950	0.000	0	0
sub-24017	Go	n/a	0.753	1	n/a
sub-24017	Go	n/a	0.362	1	n/a
sub-24017	Stop	1.000	0.000	0	1
sub-24017	Go	n/a	0.385	1	n/a
sub-24017	Go	n/a	0.403	1	n/a
sub-24017	Go	n/a	0.297	1	n/a
sub-24017	Go	n/a	0.279	1	n/a
sub-24017	Go	n/a	0.761	1	n/a
sub-24017	Go	n/a	0.338	1	n/a
sub-24017	Go	n/a	0.368	1	n/a
sub-24017	Go	n/a	0.345	1	n/a
sub-24017	Go	n/a	0.414	1	n/a
sub-24017	Go	n/a	0.311	0	n/a
sub-24017	Go	n/a	0.428	1	n/a
sub-24017	Stop	0.950	0.000	0	0
sub-24017	Go	n/a	0.471	1	n/a
sub-24017	Go	n/a	0.322	1	n/a
sub-24017	Stop	1.000	0.000	0	1
sub-24017	Stop	0.950	0.000	0	0
sub-24017	Go	n/a	0.399	0	n/a
sub-24017	Go	n/a	0.525	0	n/a
sub-24017	Go	n/a	0.431	1	n/a
sub-24017	Go	n/a	0.341	1	n/a
sub-24017	Go	n/a	0.551	1	n/a
sub-24017	Stop	1.000	0.000	0	0
sub-24017	Go	n/a	0.375	1	n/a
sub-24017	Stop	1.000	0.000	0	0
sub-24017	Stop	0.750	0.000	0	0
sub-24017	Go	n/a	0.538	1	n/a
sub-24017	Go	n/a	0.389	1	n/a
sub-24017	Go	n/a	0.359	1	n/a
sub-24017	Stop	0.800	0.000	0	0
sub-24017	Go	n/a	0.272	1	n/a
sub-24017	Go	n/a	0.347	1	n/a
sub-24017	Go	n/a	0.375	1	n/a
sub-24017	Go	n/a	0.489	1	n/a
sub-24017	Stop	0.850	0.000	0	0
sub-24017	Go	n/a	0.505	1	n/a
sub-24017	Stop	0.900	0.000	0	1
sub-24017	Go	n/a	0.354	1	n/a
sub-24017	Go	n/a	0.249	0	n/a
sub-24017	Go	n/a	0.374	0	n/a
sub-24017	Go	n/a	0.406	1	n/a
sub-24017	Go	n/a	0.391	0	n/a
sub-24017	Stop	0.850	0.000	0	0
sub-24017	Go	n/a	0.228	1	n/a
sub-24017	Go	n/a	0.273	1	n/a
sub-24017	Go	n/a	0.333	1	n/a
sub-24017	Go	n/a	0.185	0	n/a
sub-24017	Go	n/a	0.585	0	n/a
sub-24017	Stop	0.900	0.000	0	0
sub-24017	Go	n/a	0.462	1	n/a
sub-24017	Go	n/a	0.405	1	n/a
sub-24017	Stop	0.950	0.000	0	0
sub-24017	Go	n/a	0.639	1	n/a
sub-24017	Stop	1.000	0.000	0	0
sub-24017	Go	n/a	0.496	1	n/a
sub-24017	Go	n/a	0.485	0	n/a
sub-24017	Stop	1.000	0.000	0	0
sub-24017	Go	n/a	0.463	1	n/a
sub-24017	Go	n/a	0.252	1	n/a
sub-24017	Go	n/a	0.412	1	n/a
sub-24017	Go	n/a	0.488	1	n/a
sub-24017	Go	n/a	0.399	1	n/a
sub-24017	Go	n/a	0.281	1	n/a
sub-24017	Go	n/a	0.333	0	n/a
sub-24017	Go	n/a	0.244	1	n/a
sub-24017	Stop	1.000	0.000	0	0
sub-24017	Go	n/a	0.281	1	n/a
sub-24017	Go	n/a	0.302	1	n/a
sub-24017	Go	n/a	0.294	1	n/a
sub-24017	Go	n/a	0.266	1	n/a
sub-24017	Go	n/a	0.310	0	n/a
sub-24017	Stop	1.000	0.000	0	0
sub-24017	Go	n/a	0.152	0	n/a
sub-24017	Stop	1.000	0.000	0	0
sub-24017	Go	n/a	0.416	1	n/a
sub-24017	Stop	1.000	0.000	0	0
sub-24017	Go	n/a	0.534	1	n/a
sub-24017	Go	n/a	0.877	1	n/a
sub-24017	Go	n/a	0.460	1	n/a
sub-24017	Go	n/a	0.421	1	n/a
sub-24017	Go	n/a	0.288	1	n/a
sub-24017	Go	n/a	0.531	0	n/a
sub-24017	Go	n/a	0.483	1	n/a
sub-24017	Stop	1.000	0.000	0	0
sub-24017	Go	n/a	0.285	1	n/a
sub-24017	Go	n/a	0.430	1	n/a
sub-24017	Go	n/a	0.596	1	n/a
sub-24017	Go	n/a	0.410	1	n/a
sub-24017	Go	n/a	0.451	1	n/a
sub-24017	Go	n/a	0.399	1	n/a
sub-24017	Go	n/a	0.297	1	n/a
sub-24017	Stop	1.000	0.000	0	0
sub-24017	Stop	1.000	0.000	0	1
sub-24017	Stop	0.950	0.000	0	1
sub-24017	Go	n/a	0.606	1	n/a
sub-24017	Stop	0.900	0.000	0	1
sub-24017	Go	n/a	0.473	1	n/a
sub-24017	Go	n/a	0.470	1	n/a
sub-24017	Stop	0.850	0.000	0	1
sub-24017	Go	n/a	0.993	1	n/a
sub-24017	Go	n/a	0.409	1	n/a
sub-24017	Stop	0.800	0.000	0	0
sub-24017	Stop	0.850	0.000	0	0
sub-24017	Go	n/a	0.644	1	n/a
sub-24017	Go	n/a	0.489	1	n/a
sub-24017	Go	n/a	0.433	1	n/a
sub-24017	Go	n/a	0.366	1	n/a
sub-24017	Go	n/a	0.192	0	n/a
sub-24017	Go	n/a	0.372	0	n/a
sub-24017	Go	n/a	0.355	1	n/a
sub-24017	Go	n/a	0.133	0	n/a
sub-24017	Go	n/a	0.314	1	n/a
sub-24017	Stop	0.900	0.000	0	0
sub-24017	Go	n/a	0.348	1	n/a
sub-24017	Go	n/a	0.295	1	n/a
sub-24017	Go	n/a	0.304	1	n/a
sub-24017	Go	n/a	0.271	1	n/a
sub-24017	Go	n/a	0.372	1	n/a
sub-24017	Stop	0.750	0.000	0	0
sub-24017	Stop	0.800	0.000	0	0
sub-24017	Stop	0.850	0.000	0	1
sub-24017	Go	n/a	0.354	1	n/a
sub-24017	Go	n/a	0.403	1	n/a
sub-24017	Go	n/a	0.424	1	n/a
sub-24017	Go	n/a	0.368	1	n/a
sub-24017	Go	n/a	0.396	1	n/a
sub-24017	Go	n/a	0.213	0	n/a
sub-24017	Go	n/a	0.096	1	n/a
sub-24017	Go	n/a	0.051	1	n/a
sub-24017	Stop	0.800	0.000	0	0
sub-24017	Go	n/a	0.513	1	n/a
sub-24017	Go	n/a	0.332	1	n/a
sub-24017	Go	n/a	0.565	1	n/a
sub-24017	Go	n/a	0.353	1	n/a
sub-24017	Go	n/a	0.401	1	n/a
sub-24017	Go	n/a	0.476	1	n/a
sub-24017	Stop	0.850	0.000	0	0
sub-24017	Go	n/a	0.506	0	n/a
sub-24017	Go	n/a	0.460	0	n/a
sub-24017	Go	n/a	0.394	1	n/a
sub-24017	Go	n/a	0.259	1	n/a
sub-24017	Go	n/a	0.238	0	n/a
sub-24017	Stop	0.900	0.000	0	0
sub-24017	Go	n/a	0.365	1	n/a
sub-24017	Stop	0.950	0.000	0	0
sub-24017	Go	n/a	0.532	1	n/a
sub-24017	Go	n/a	0.278	1	n/a
sub-24017	Go	n/a	0.583	1	n/a
sub-24017	Go	n/a	0.485	1	n/a
sub-24017	Go	n/a	0.513	1	n/a
sub-24017	Go	n/a	0.759	1	n/a
sub-24017	Stop	1.000	0.000	0	0
sub-24017	Go	n/a	0.413	1	n/a
sub-24017	Go	n/a	0.333	1	n/a
sub-24017	Stop	1.000	0.000	0	0
sub-24017	Go	n/a	0.266	0	n/a
sub-24017	Go	n/a	0.458	1	n/a
sub-24017	Stop	1.000	0.000	0	0
sub-24017	Go	n/a	0.513	1	n/a
sub-24017	Go	n/a	0.301	1	n/a
sub-24017	Go	n/a	0.208	0	n/a
sub-24017	Go	n/a	0.265	1	n/a
sub-24017	Stop	1.000	0.000	0	1
sub-24017	Go	n/a	0.573	1	n/a
sub-24017	Go	n/a	0.628	1	n/a
sub-24017	Go	n/a	0.545	1	n/a
sub-24017	Stop	0.950	0.000	0	0
sub-24017	Go	n/a	0.518	1	n/a
sub-24017	Stop	1.000	0.000	0	0
sub-24017	Go	n/a	0.456	1	n/a
sub-24017	Go	n/a	0.368	1	n/a
sub-24017	Go	n/a	0.119	1	n/a
sub-24017	Go	n/a	0.515	1	n/a
sub-24017	Go	n/a	0.414	1	n/a
sub-24017	Stop	1.000	0.000	0	0
sub-24017	Go	n/a	0.415	1	n/a
sub-24017	Go	n/a	0.554	1	n/a
sub-24017	Go	n/a	0.387	1	n/a
sub-24017	Go	n/a	0.459	1	n/a
sub-24017	Go	n/a	0.454	1	n/a
sub-24017	Stop	1.000	0.000	0	0
sub-24017	Go	n/a	0.541	1	n/a
sub-24017	Go	n/a	0.528	1	n/a
sub-24017	Go	n/a	0.344	1	n/a
sub-24017	Go	n/a	0.583	1	n/a
sub-24017	Go	n/a	0.412	1	n/a
sub-24017	Stop	1.000	0.000	0	0
sub-24017	Stop	1.000	0.000	0	0
sub-24017	Go	n/a	0.751	1	n/a
sub-24017	Go	n/a	0.490	1	n/a
sub-24017	Go	n/a	0.453	1	n/a
sub-24017	Go	n/a	0.498	1	n/a
sub-24017	Stop	1.000	0.000	0	1
sub-24017	Stop	0.950	0.000	0	0
sub-24017	Stop	1.000	0.000	0	0
sub-24017	Go	n/a	0.411	1	n/a
sub-24017	Go	n/a	0.580	1	n/a
sub-24017	Go	n/a	0.522	1	n/a
sub-24017	Stop	1.000	0.000	0	0
sub-24017	Go	n/a	0.673	1	n/a
sub-24017	Stop	1.000	0.000	0	1
sub-24017	Stop	0.750	0.000	0	0
sub-24017	Go	n/a	0.380	1	n/a
sub-24017	Go	n/a	0.330	1	n/a
sub-24017	Go	n/a	0.393	1	n/a
sub-24017	Go	n/a	0.248	0	n/a
sub-24017	Stop	0.800	0.000	0	0
sub-24017	Stop	0.850	0.000	0	0
sub-24017	Stop	0.900	0.000	0	0
sub-24017	Go	n/a	0.679	1	n/a
sub-24017	Go	n/a	0.352	1	n/a
sub-24017	Go	n/a	0.415	1	n/a
sub-24017	Go	n/a	0.472	1	n/a
sub-24017	Go	n/a	0.398	1	n/a
sub-24017	Go	n/a	0.347	1	n/a
sub-24017	Go	n/a	0.388	1	n/a
sub-24017	Go	n/a	0.255	1	n/a
sub-24017	Go	n/a	0.264	0	n/a
sub-24017	Go	n/a	0.342	1	n/a
sub-24017	Stop	0.950	0.000	0	0
sub-24017	Go	n/a	0.428	1	n/a
sub-24017	Go	n/a	0.286	1	n/a
sub-24017	Go	n/a	0.073	1	n/a
sub-24017	Go	n/a	0.241	0	n/a
sub-24017	Stop	1.000	0.000	0	0
sub-24017	Go	n/a	0.389	1	n/a
sub-24017	Go	n/a	0.346	1	n/a
sub-24017	Go	n/a	0.487	1	n/a
sub-24017	Stop	1.000	0.000	0	0
sub-24017	Go	n/a	0.303	1	n/a
sub-24017	Go	n/a	0.296	1	n/a
sub-24017	Go	n/a	0.229	0	n/a
sub-24017	Stop	1.000	0.000	0	0
sub-24017	Go	n/a	0.310	1	n/a
sub-24017	Go	n/a	0.509	1	n/a
sub-24017	Stop	1.000	0.000	0	1
sub-24017	Go	n/a	0.440	1	n/a
sub-24017	Go	n/a	0.376	1	n/a
sub-24017	Go	n/a	0.385	1	n/a
sub-24017	Stop	0.950	0.000	0	1
sub-24017	Go	n/a	0.656	1	n/a
sub-24017	Go	n/a	0.685	1	n/a
sub-24017	Stop	0.900	0.000	0	1
sub-24017	Go	n/a	0.272	1	n/a
sub-24017	Stop	0.850	0.000	0	0
sub-24017	Go	n/a	0.524	1	n/a
sub-24017	Stop	0.900	0.000	0	1
sub-24017	Go	n/a	0.420	1	n/a
sub-24017	Go	n/a	0.363	1	n/a
sub-24017	Go	n/a	0.337	1	n/a
sub-24017	Go	n/a	0.497	0	n/a
sub-24017	Go	n/a	0.555	1	n/a
sub-24017	Go	n/a	0.428	1	n/a
sub-24017	Go	n/a	0.394	0	n/a
sub-24017	Stop	0.850	0.000	0	0
sub-24017	Stop	0.900	0.000	0	1
sub-24017	Go	n/a	0.373	1	n/a
sub-24017	Go	n/a	0.388	1	n/a
sub-24017	Go	n/a	0.470	1	n/a
sub-24017	Go	n/a	0.374	1	n/a
sub-24017	Go	n/a	0.409	1	n/a
sub-24017	Go	n/a	0.385	1	n/a
sub-24017	Go	n/a	0.240	1	n/a
sub-24017	Go	n/a	0.253	1	n/a
sub-24017	Go	n/a	0.514	1	n/a
sub-24017	Stop	0.850	0.000	0	0
sub-24017	Go	n/a	0.347	1	n/a
sub-24017	Go	n/a	0.739	1	n/a
sub-24017	Stop	0.900	0.000	0	0
sub-24017	Go	n/a	0.393	1	n/a
sub-24017	Go	n/a	0.343	1	n/a
sub-24017	Go	n/a	0.331	1	n/a
sub-24017	Go	n/a	0.342	1	n/a
sub-24017	Go	n/a	0.586	1	n/a
sub-24017	Go	n/a	0.815	1	n/a
sub-24017	Go	n/a	0.586	1	n/a
sub-24017	Go	n/a	0.409	1	n/a
sub-24017	Go	n/a	0.385	1	n/a
sub-24017	Go	n/a	0.338	1	n/a
sub-24017	Stop	0.950	0.000	0	0
sub-24017	Go	n/a	0.665	1	n/a
sub-24017	Stop	1.000	0.000	0	0
sub-24017	Go	n/a	0.605	1	n/a
sub-24017	Stop	1.000	0.000	0	1
sub-24017	Stop	0.950	0.000	0	1
sub-24017	Go	n/a	0.672	1	n/a
sub-24017	Stop	0.900	0.000	0	0
sub-24017	Go	n/a	0.808	1	n/a
sub-24017	Go	n/a	0.502	1	n/a
