onset	duration	startTime	stopTime	eventIdentifier	trial_type	trial_number	block_number	is_practice	fixation_color	cue_side	aoi_correct	aoi_incorrect
0.145	2.0	1852406	1854436	ShowFixation	ANTI	1	1	True	red	600	[ 90 570 405 675]	[1350 1830  405  675]
2.175	0.2	1854436	1854672	BlankScreen	ANTI	1	1	True	red	600	[ 90 570 405 675]	[1350 1830  405  675]
2.411	1.0	1854672	1855712	ELCue	ANTI	1	1	True	red	600	[ 90 570 405 675]	[1350 1830  405  675]
3.855	6.0	1856116	1862741	ShowFixation	VGS	2	1	True	lime	40	[ 90 570 405 675]	[1350 1830  405  675]
10.48	0.2	1862741	1862980	BlankScreen	VGS	2	1	True	lime	40	[ 90 570 405 675]	[1350 1830  405  675]
10.719	1.0	1862980	1864020	ELCue	VGS	2	1	True	lime	40	[ 90 570 405 675]	[1350 1830  405  675]
12.165	2.0	1864426	1867049	ShowFixation	VGS	3	1	True	lime	40	[ 90 570 405 675]	[1350 1830  405  675]
14.788	0.2	1867049	1867267	BlankScreen	VGS	3	1	True	lime	40	[ 90 570 405 675]	[1350 1830  405  675]
15.006	1.0	1867267	1868291	ELCue	VGS	3	1	True	lime	40	[ 90 570 405 675]	[1350 1830  405  675]
16.402	6.0	1868663	1875336	ShowFixation	VGS	4	1	True	lime	460	[1035 1515  405  675]	[405 885 405 675]
23.075	0.2	1875336	1875577	BlankScreen	VGS	4	1	True	lime	460	[1035 1515  405  675]	[405 885 405 675]
23.316	1.0	1875577	1876616	ELCue	VGS	4	1	True	lime	460	[1035 1515  405  675]	[405 885 405 675]
24.756	6.0	1877017	1883646	ShowFixation	VGS	5	1	True	lime	600	[1350 1830  405  675]	[ 90 570 405 675]
31.385	0.2	1883646	1883885	BlankScreen	VGS	5	1	True	lime	600	[1350 1830  405  675]	[ 90 570 405 675]
31.624	1.0	1883885	1884922	ELCue	VGS	5	1	True	lime	600	[1350 1830  405  675]	[ 90 570 405 675]
33.055	2.0	1885316	1887954	ShowFixation	VGS	6	1	True	lime	600	[1350 1830  405  675]	[ 90 570 405 675]
35.693	0.2	1887954	1888189	BlankScreen	VGS	6	1	True	lime	600	[1350 1830  405  675]	[ 90 570 405 675]
35.928	1.0	1888189	1889229	ELCue	VGS	6	1	True	lime	600	[1350 1830  405  675]	[ 90 570 405 675]
37.373	2.0	1889634	1892275	ShowFixation	ANTI	7	1	True	red	180	[1035 1515  405  675]	[405 885 405 675]
40.014	0.2	1892275	1892510	BlankScreen	ANTI	7	1	True	red	180	[1035 1515  405  675]	[405 885 405 675]
40.249	1.0	1892510	1893550	ELCue	ANTI	7	1	True	red	180	[1035 1515  405  675]	[405 885 405 675]
41.698	2.0	1893959	1896596	ShowFixation	ANTI	8	1	True	red	40	[1350 1830  405  675]	[ 90 570 405 675]
44.335	0.2	1896596	1896831	BlankScreen	ANTI	8	1	True	red	40	[1350 1830  405  675]	[ 90 570 405 675]
44.57	1.0	1896831	1897869	ELCue	ANTI	8	1	True	red	40	[1350 1830  405  675]	[ 90 570 405 675]
46.012	6.0	1898273	1904916	ShowFixation	ANTI	9	1	True	red	40	[1350 1830  405  675]	[ 90 570 405 675]
52.655	0.2	1904916	1905156	BlankScreen	ANTI	9	1	True	red	40	[1350 1830  405  675]	[ 90 570 405 675]
52.895	1.0	1905156	1906197	ELCue	ANTI	9	1	True	red	40	[1350 1830  405  675]	[ 90 570 405 675]
54.323	6.0	1906584	1913241	ShowFixation	VGS	10	1	True	lime	180	[405 885 405 675]	[1035 1515  405  675]
60.98	0.2	1913241	1913481	BlankScreen	VGS	10	1	True	lime	180	[405 885 405 675]	[1035 1515  405  675]
61.22	1.0	1913481	1914521	ELCue	VGS	10	1	True	lime	180	[405 885 405 675]	[1035 1515  405  675]
62.661	2.0	1914922	1917566	ShowFixation	VGS	11	1	True	lime	180	[405 885 405 675]	[1035 1515  405  675]
65.305	0.2	1917566	1917802	BlankScreen	VGS	11	1	True	lime	180	[405 885 405 675]	[1035 1515  405  675]
65.541	1.0	1917802	1918842	ELCue	VGS	11	1	True	lime	180	[405 885 405 675]	[1035 1515  405  675]
66.981	2.0	1919242	1921870	ShowFixation	VGS	12	1	True	lime	460	[1035 1515  405  675]	[405 885 405 675]
69.609	0.2	1921870	1922089	BlankScreen	VGS	12	1	True	lime	460	[1035 1515  405  675]	[405 885 405 675]
69.828	1.0	1922089	1923112	ELCue	VGS	12	1	True	lime	460	[1035 1515  405  675]	[405 885 405 675]
71.26	2.0	1923521	1926158	ShowFixation	ANTI	13	1	True	red	460	[405 885 405 675]	[1035 1515  405  675]
73.897	0.2	1926158	1926393	BlankScreen	ANTI	13	1	True	red	460	[405 885 405 675]	[1035 1515  405  675]
74.132	1.0	1926393	1927433	ELCue	ANTI	13	1	True	red	460	[405 885 405 675]	[1035 1515  405  675]
75.668	6.0	1927929	1934462	ShowFixation	ANTI	14	1	True	red	600	[ 90 570 405 675]	[1350 1830  405  675]
82.201	0.2	1934462	1934702	BlankScreen	ANTI	14	1	True	red	600	[ 90 570 405 675]	[1350 1830  405  675]
82.441	1.0	1934702	1935742	ELCue	ANTI	14	1	True	red	600	[ 90 570 405 675]	[1350 1830  405  675]
83.883	6.0	1936144	1942787	ShowFixation	ANTI	15	1	True	red	180	[1035 1515  405  675]	[405 885 405 675]
90.526	0.2	1942787	1943026	BlankScreen	ANTI	15	1	True	red	180	[1035 1515  405  675]	[405 885 405 675]
90.765	1.0	1943026	1944067	ELCue	ANTI	15	1	True	red	180	[1035 1515  405  675]	[405 885 405 675]
92.189	6.0	1944450	1951112	ShowFixation	ANTI	16	1	True	red	460	[405 885 405 675]	[1035 1515  405  675]
98.851	0.2	1951112	1951351	BlankScreen	ANTI	16	1	True	red	460	[405 885 405 675]	[1035 1515  405  675]
99.09	1.0	1951351	1952392	ELCue	ANTI	16	1	True	red	460	[405 885 405 675]	[1035 1515  405  675]
141.559	6.0	1993820	1999861	ShowFixation	VGS	17	2	False	lime	180	[405 885 405 675]	[1035 1515  405  675]
147.6	0.2	1999861	2000101	BlankScreen	VGS	17	2	False	lime	180	[405 885 405 675]	[1035 1515  405  675]
147.84	1.0	2000101	2001101	ELCue	VGS	17	2	False	lime	180	[405 885 405 675]	[1035 1515  405  675]
149.249	6.0	2001510	2007535	ShowFixation	VGS	18	2	False	lime	600	[1350 1830  405  675]	[ 90 570 405 675]
155.274	0.2	2007535	2007775	BlankScreen	VGS	18	2	False	lime	600	[1350 1830  405  675]	[ 90 570 405 675]
155.514	1.0	2007775	2008775	ELCue	VGS	18	2	False	lime	600	[1350 1830  405  675]	[ 90 570 405 675]
156.922	2.0	2009183	2011210	ShowFixation	ANTI	19	2	False	red	460	[405 885 405 675]	[1035 1515  405  675]
158.949	0.2	2011210	2011445	BlankScreen	ANTI	19	2	False	red	460	[405 885 405 675]	[1035 1515  405  675]
159.184	1.0	2011445	2012445	ELCue	ANTI	19	2	False	red	460	[405 885 405 675]	[1035 1515  405  675]
160.589	6.0	2012850	2018880	ShowFixation	VGS	20	2	False	lime	40	[ 90 570 405 675]	[1350 1830  405  675]
166.619	0.2	2018880	2019119	BlankScreen	VGS	20	2	False	lime	40	[ 90 570 405 675]	[1350 1830  405  675]
166.858	1.0	2019119	2020119	ELCue	VGS	20	2	False	lime	40	[ 90 570 405 675]	[1350 1830  405  675]
168.233	6.0	2020494	2026521	ShowFixation	VGS	21	2	False	lime	40	[ 90 570 405 675]	[1350 1830  405  675]
174.26	0.2	2026521	2026760	BlankScreen	VGS	21	2	False	lime	40	[ 90 570 405 675]	[1350 1830  405  675]
174.499	1.0	2026760	2027760	ELCue	VGS	21	2	False	lime	40	[ 90 570 405 675]	[1350 1830  405  675]
175.91	6.0	2028171	2034212	ShowFixation	ANTI	22	2	False	red	460	[405 885 405 675]	[1035 1515  405  675]
181.951	0.2	2034212	2034451	BlankScreen	ANTI	22	2	False	red	460	[405 885 405 675]	[1035 1515  405  675]
182.19	1.0	2034451	2035451	ELCue	ANTI	22	2	False	red	460	[405 885 405 675]	[1035 1515  405  675]
183.6	6.0	2035861	2041886	ShowFixation	ANTI	23	2	False	red	460	[405 885 405 675]	[1035 1515  405  675]
189.625	0.2	2041886	2042125	BlankScreen	ANTI	23	2	False	red	460	[405 885 405 675]	[1035 1515  405  675]
189.864	1.0	2042125	2043125	ELCue	ANTI	23	2	False	red	460	[405 885 405 675]	[1035 1515  405  675]
191.272	2.0	2043533	2045560	ShowFixation	ANTI	24	2	False	red	600	[ 90 570 405 675]	[1350 1830  405  675]
193.299	0.2	2045560	2045796	BlankScreen	ANTI	24	2	False	red	600	[ 90 570 405 675]	[1350 1830  405  675]
193.535	1.0	2045796	2046796	ELCue	ANTI	24	2	False	red	600	[ 90 570 405 675]	[1350 1830  405  675]
194.923	2.0	2047184	2049214	ShowFixation	VGS	25	2	False	lime	40	[ 90 570 405 675]	[1350 1830  405  675]
196.953	0.2	2049214	2049449	BlankScreen	VGS	25	2	False	lime	40	[ 90 570 405 675]	[1350 1830  405  675]
197.188	1.0	2049449	2050449	ELCue	VGS	25	2	False	lime	40	[ 90 570 405 675]	[1350 1830  405  675]
198.594	2.0	2050855	2052884	ShowFixation	VGS	26	2	False	lime	180	[405 885 405 675]	[1035 1515  405  675]
200.623	0.2	2052884	2053119	BlankScreen	VGS	26	2	False	lime	180	[405 885 405 675]	[1035 1515  405  675]
200.858	1.0	2053119	2054119	ELCue	VGS	26	2	False	lime	180	[405 885 405 675]	[1035 1515  405  675]
202.264	2.0	2054525	2056554	ShowFixation	ANTI	27	2	False	red	40	[1350 1830  405  675]	[ 90 570 405 675]
204.293	0.2	2056554	2056790	BlankScreen	ANTI	27	2	False	red	40	[1350 1830  405  675]	[ 90 570 405 675]
204.529	1.0	2056790	2057790	ELCue	ANTI	27	2	False	red	40	[1350 1830  405  675]	[ 90 570 405 675]
205.934	2.0	2058195	2060225	ShowFixation	VGS	28	2	False	lime	40	[ 90 570 405 675]	[1350 1830  405  675]
207.964	0.2	2060225	2060460	BlankScreen	VGS	28	2	False	lime	40	[ 90 570 405 675]	[1350 1830  405  675]
208.199	1.0	2060460	2061460	ELCue	VGS	28	2	False	lime	40	[ 90 570 405 675]	[1350 1830  405  675]
209.61	2.0	2061871	2063912	ShowFixation	ANTI	29	2	False	red	40	[1350 1830  405  675]	[ 90 570 405 675]
211.651	0.2	2063912	2064147	BlankScreen	ANTI	29	2	False	red	40	[1350 1830  405  675]	[ 90 570 405 675]
211.886	1.0	2064147	2065147	ELCue	ANTI	29	2	False	red	40	[1350 1830  405  675]	[ 90 570 405 675]
213.293	6.0	2065554	2071582	ShowFixation	ANTI	30	2	False	red	600	[ 90 570 405 675]	[1350 1830  405  675]
219.321	0.2	2071582	2071821	BlankScreen	ANTI	30	2	False	red	600	[ 90 570 405 675]	[1350 1830  405  675]
219.56	1.0	2071821	2072821	ELCue	ANTI	30	2	False	red	600	[ 90 570 405 675]	[1350 1830  405  675]
220.965	6.0	2073226	2079256	ShowFixation	ANTI	31	2	False	red	180	[1035 1515  405  675]	[405 885 405 675]
226.995	0.2	2079256	2079496	BlankScreen	ANTI	31	2	False	red	180	[1035 1515  405  675]	[405 885 405 675]
227.235	1.0	2079496	2080496	ELCue	ANTI	31	2	False	red	180	[1035 1515  405  675]	[405 885 405 675]
228.64	2.0	2080901	2082930	ShowFixation	VGS	32	2	False	lime	460	[1035 1515  405  675]	[405 885 405 675]
230.669	0.2	2082930	2083166	BlankScreen	VGS	32	2	False	lime	460	[1035 1515  405  675]	[405 885 405 675]
230.905	1.0	2083166	2084166	ELCue	VGS	32	2	False	lime	460	[1035 1515  405  675]	[405 885 405 675]
232.31	2.0	2084571	2086601	ShowFixation	ANTI	33	2	False	red	180	[1035 1515  405  675]	[405 885 405 675]
234.34	0.2	2086601	2086836	BlankScreen	ANTI	33	2	False	red	180	[1035 1515  405  675]	[405 885 405 675]
234.575	1.0	2086836	2087836	ELCue	ANTI	33	2	False	red	180	[1035 1515  405  675]	[405 885 405 675]
235.984	6.0	2088245	2094271	ShowFixation	ANTI	34	2	False	red	40	[1350 1830  405  675]	[ 90 570 405 675]
242.01	0.2	2094271	2094510	BlankScreen	ANTI	34	2	False	red	40	[1350 1830  405  675]	[ 90 570 405 675]
242.25	1.0	2094511	2095511	ELCue	ANTI	34	2	False	red	40	[1350 1830  405  675]	[ 90 570 405 675]
243.662	2.0	2095923	2097962	ShowFixation	ANTI	35	2	False	red	600	[ 90 570 405 675]	[1350 1830  405  675]
245.701	0.2	2097962	2098197	BlankScreen	ANTI	35	2	False	red	600	[ 90 570 405 675]	[1350 1830  405  675]
245.937	1.0	2098198	2099198	ELCue	ANTI	35	2	False	red	600	[ 90 570 405 675]	[1350 1830  405  675]
247.342	6.0	2099603	2105633	ShowFixation	VGS	36	2	False	lime	180	[405 885 405 675]	[1035 1515  405  675]
253.372	0.2	2105633	2105873	BlankScreen	VGS	36	2	False	lime	180	[405 885 405 675]	[1035 1515  405  675]
253.612	1.0	2105873	2106873	ELCue	VGS	36	2	False	lime	180	[405 885 405 675]	[1035 1515  405  675]
255.022	2.0	2107283	2109324	ShowFixation	ANTI	37	2	False	red	180	[1035 1515  405  675]	[405 885 405 675]
257.063	0.2	2109324	2109560	BlankScreen	ANTI	37	2	False	red	180	[1035 1515  405  675]	[405 885 405 675]
257.299	1.0	2109560	2110560	ELCue	ANTI	37	2	False	red	180	[1035 1515  405  675]	[405 885 405 675]
258.701	6.0	2110962	2116994	ShowFixation	VGS	38	2	False	lime	460	[1035 1515  405  675]	[405 885 405 675]
264.733	0.2	2116994	2117234	BlankScreen	VGS	38	2	False	lime	460	[1035 1515  405  675]	[405 885 405 675]
264.973	1.0	2117234	2118234	ELCue	VGS	38	2	False	lime	460	[1035 1515  405  675]	[405 885 405 675]
266.378	6.0	2118639	2124669	ShowFixation	VGS	39	2	False	lime	460	[1035 1515  405  675]	[405 885 405 675]
272.408	0.2	2124669	2124908	BlankScreen	VGS	39	2	False	lime	460	[1035 1515  405  675]	[405 885 405 675]
272.647	1.0	2124908	2125908	ELCue	VGS	39	2	False	lime	460	[1035 1515  405  675]	[405 885 405 675]
274.054	6.0	2126315	2132343	ShowFixation	ANTI	40	2	False	red	40	[1350 1830  405  675]	[ 90 570 405 675]
280.082	0.2	2132343	2132582	BlankScreen	ANTI	40	2	False	red	40	[1350 1830  405  675]	[ 90 570 405 675]
280.321	1.0	2132582	2133582	ELCue	ANTI	40	2	False	red	40	[1350 1830  405  675]	[ 90 570 405 675]
281.73	2.0	2133991	2136017	ShowFixation	VGS	41	2	False	lime	600	[1350 1830  405  675]	[ 90 570 405 675]
283.756	0.2	2136017	2136253	BlankScreen	VGS	41	2	False	lime	600	[1350 1830  405  675]	[ 90 570 405 675]
283.992	1.0	2136253	2137253	ELCue	VGS	41	2	False	lime	600	[1350 1830  405  675]	[ 90 570 405 675]
285.401	2.0	2137662	2139687	ShowFixation	VGS	42	2	False	lime	600	[1350 1830  405  675]	[ 90 570 405 675]
287.426	0.2	2139687	2139923	BlankScreen	VGS	42	2	False	lime	600	[1350 1830  405  675]	[ 90 570 405 675]
287.662	1.0	2139923	2140923	ELCue	VGS	42	2	False	lime	600	[1350 1830  405  675]	[ 90 570 405 675]
289.068	2.0	2141329	2143358	ShowFixation	VGS	43	2	False	lime	460	[1035 1515  405  675]	[405 885 405 675]
291.097	0.2	2143358	2143593	BlankScreen	VGS	43	2	False	lime	460	[1035 1515  405  675]	[405 885 405 675]
291.332	1.0	2143593	2144593	ELCue	VGS	43	2	False	lime	460	[1035 1515  405  675]	[405 885 405 675]
292.736	6.0	2144997	2151028	ShowFixation	ANTI	44	2	False	red	180	[1035 1515  405  675]	[405 885 405 675]
298.767	0.2	2151028	2151267	BlankScreen	ANTI	44	2	False	red	180	[1035 1515  405  675]	[405 885 405 675]
299.006	1.0	2151267	2152267	ELCue	ANTI	44	2	False	red	180	[1035 1515  405  675]	[405 885 405 675]
300.393	2.0	2152654	2154686	ShowFixation	VGS	45	2	False	lime	180	[405 885 405 675]	[1035 1515  405  675]
302.425	0.2	2154686	2154921	BlankScreen	VGS	45	2	False	lime	180	[405 885 405 675]	[1035 1515  405  675]
302.66	1.0	2154921	2155921	ELCue	VGS	45	2	False	lime	180	[405 885 405 675]	[1035 1515  405  675]
304.064	6.0	2156325	2162356	ShowFixation	VGS	46	2	False	lime	600	[1350 1830  405  675]	[ 90 570 405 675]
310.095	0.2	2162356	2162595	BlankScreen	VGS	46	2	False	lime	600	[1350 1830  405  675]	[ 90 570 405 675]
310.334	1.0	2162595	2163595	ELCue	VGS	46	2	False	lime	600	[1350 1830  405  675]	[ 90 570 405 675]
311.747	6.0	2164008	2170047	ShowFixation	ANTI	47	2	False	red	600	[ 90 570 405 675]	[1350 1830  405  675]
317.786	0.2	2170047	2170286	BlankScreen	ANTI	47	2	False	red	600	[ 90 570 405 675]	[1350 1830  405  675]
318.025	1.0	2170286	2171286	ELCue	ANTI	47	2	False	red	600	[ 90 570 405 675]	[1350 1830  405  675]
319.434	2.0	2171695	2173721	ShowFixation	ANTI	48	2	False	red	460	[405 885 405 675]	[1035 1515  405  675]
321.46	0.2	2173721	2173956	BlankScreen	ANTI	48	2	False	red	460	[405 885 405 675]	[1035 1515  405  675]
321.695	1.0	2173956	2174956	ELCue	ANTI	48	2	False	red	460	[405 885 405 675]	[1035 1515  405  675]
369.128	6.0	2221389	2227420	ShowFixation	ANTI	49	3	False	red	460	[405 885 405 675]	[1035 1515  405  675]
375.16	0.2	2227421	2227659	BlankScreen	ANTI	49	3	False	red	460	[405 885 405 675]	[1035 1515  405  675]
375.398	1.0	2227659	2228659	ELCue	ANTI	49	3	False	red	460	[405 885 405 675]	[1035 1515  405  675]
376.806	2.0	2229067	2231094	ShowFixation	VGS	50	3	False	lime	460	[1035 1515  405  675]	[405 885 405 675]
378.833	0.2	2231094	2231330	BlankScreen	VGS	50	3	False	lime	460	[1035 1515  405  675]	[405 885 405 675]
379.069	1.0	2231330	2232330	ELCue	VGS	50	3	False	lime	460	[1035 1515  405  675]	[405 885 405 675]
380.477	2.0	2232738	2234766	ShowFixation	VGS	51	3	False	lime	40	[ 90 570 405 675]	[1350 1830  405  675]
382.505	0.2	2234766	2235001	BlankScreen	VGS	51	3	False	lime	40	[ 90 570 405 675]	[1350 1830  405  675]
382.74	1.0	2235001	2236001	ELCue	VGS	51	3	False	lime	40	[ 90 570 405 675]	[1350 1830  405  675]
384.146	6.0	2236407	2242436	ShowFixation	ANTI	52	3	False	red	180	[1035 1515  405  675]	[405 885 405 675]
390.175	0.2	2242436	2242675	BlankScreen	ANTI	52	3	False	red	180	[1035 1515  405  675]	[405 885 405 675]
390.414	1.0	2242675	2243675	ELCue	ANTI	52	3	False	red	180	[1035 1515  405  675]	[405 885 405 675]
391.821	2.0	2244082	2246110	ShowFixation	ANTI	53	3	False	red	460	[405 885 405 675]	[1035 1515  405  675]
393.849	0.2	2246110	2246345	BlankScreen	ANTI	53	3	False	red	460	[405 885 405 675]	[1035 1515  405  675]
394.084	1.0	2246345	2247345	ELCue	ANTI	53	3	False	red	460	[405 885 405 675]	[1035 1515  405  675]
395.493	6.0	2247754	2253780	ShowFixation	VGS	54	3	False	lime	180	[405 885 405 675]	[1035 1515  405  675]
401.519	0.2	2253780	2254020	BlankScreen	VGS	54	3	False	lime	180	[405 885 405 675]	[1035 1515  405  675]
401.759	1.0	2254020	2255020	ELCue	VGS	54	3	False	lime	180	[405 885 405 675]	[1035 1515  405  675]
403.165	6.0	2255426	2261455	ShowFixation	ANTI	55	3	False	red	180	[1035 1515  405  675]	[405 885 405 675]
409.194	0.2	2261455	2261694	BlankScreen	ANTI	55	3	False	red	180	[1035 1515  405  675]	[405 885 405 675]
409.433	1.0	2261694	2262694	ELCue	ANTI	55	3	False	red	180	[1035 1515  405  675]	[405 885 405 675]
410.841	2.0	2263102	2265129	ShowFixation	ANTI	56	3	False	red	600	[ 90 570 405 675]	[1350 1830  405  675]
412.868	0.2	2265129	2265364	BlankScreen	ANTI	56	3	False	red	600	[ 90 570 405 675]	[1350 1830  405  675]
413.103	1.0	2265364	2266364	ELCue	ANTI	56	3	False	red	600	[ 90 570 405 675]	[1350 1830  405  675]
414.491	6.0	2266752	2272783	ShowFixation	VGS	57	3	False	lime	460	[1035 1515  405  675]	[405 885 405 675]
420.522	0.2	2272783	2273022	BlankScreen	VGS	57	3	False	lime	460	[1035 1515  405  675]	[405 885 405 675]
420.761	1.0	2273022	2274022	ELCue	VGS	57	3	False	lime	460	[1035 1515  405  675]	[405 885 405 675]
422.165	2.0	2274426	2276457	ShowFixation	ANTI	58	3	False	red	40	[1350 1830  405  675]	[ 90 570 405 675]
424.196	0.2	2276457	2276692	BlankScreen	ANTI	58	3	False	red	40	[1350 1830  405  675]	[ 90 570 405 675]
424.431	1.0	2276692	2277692	ELCue	ANTI	58	3	False	red	40	[1350 1830  405  675]	[ 90 570 405 675]
425.842	2.0	2278103	2280144	ShowFixation	VGS	59	3	False	lime	180	[405 885 405 675]	[1035 1515  405  675]
427.883	0.2	2280144	2280379	BlankScreen	VGS	59	3	False	lime	180	[405 885 405 675]	[1035 1515  405  675]
428.118	1.0	2280379	2281379	ELCue	VGS	59	3	False	lime	180	[405 885 405 675]	[1035 1515  405  675]
429.521	6.0	2281782	2287814	ShowFixation	VGS	60	3	False	lime	40	[ 90 570 405 675]	[1350 1830  405  675]
435.553	0.2	2287814	2288053	BlankScreen	VGS	60	3	False	lime	40	[ 90 570 405 675]	[1350 1830  405  675]
435.792	1.0	2288053	2289053	ELCue	VGS	60	3	False	lime	40	[ 90 570 405 675]	[1350 1830  405  675]
437.201	2.0	2289462	2291488	ShowFixation	VGS	61	3	False	lime	40	[ 90 570 405 675]	[1350 1830  405  675]
439.227	0.2	2291488	2291724	BlankScreen	VGS	61	3	False	lime	40	[ 90 570 405 675]	[1350 1830  405  675]
439.463	1.0	2291724	2292724	ELCue	VGS	61	3	False	lime	40	[ 90 570 405 675]	[1350 1830  405  675]
440.869	6.0	2293130	2299159	ShowFixation	ANTI	62	3	False	red	600	[ 90 570 405 675]	[1350 1830  405  675]
446.898	0.2	2299159	2299398	BlankScreen	ANTI	62	3	False	red	600	[ 90 570 405 675]	[1350 1830  405  675]
447.137	1.0	2299398	2300398	ELCue	ANTI	62	3	False	red	600	[ 90 570 405 675]	[1350 1830  405  675]
448.544	2.0	2300805	2302833	ShowFixation	ANTI	63	3	False	red	180	[1035 1515  405  675]	[405 885 405 675]
450.572	0.2	2302833	2303068	BlankScreen	ANTI	63	3	False	red	180	[1035 1515  405  675]	[405 885 405 675]
450.807	1.0	2303068	2304068	ELCue	ANTI	63	3	False	red	180	[1035 1515  405  675]	[405 885 405 675]
452.214	2.0	2304475	2306503	ShowFixation	ANTI	64	3	False	red	460	[405 885 405 675]	[1035 1515  405  675]
454.242	0.2	2306503	2306738	BlankScreen	ANTI	64	3	False	red	460	[405 885 405 675]	[1035 1515  405  675]
454.477	1.0	2306738	2307738	ELCue	ANTI	64	3	False	red	460	[405 885 405 675]	[1035 1515  405  675]
455.887	2.0	2308148	2310173	ShowFixation	ANTI	65	3	False	red	40	[1350 1830  405  675]	[ 90 570 405 675]
457.912	0.2	2310173	2310409	BlankScreen	ANTI	65	3	False	red	40	[1350 1830  405  675]	[ 90 570 405 675]
458.148	1.0	2310409	2311409	ELCue	ANTI	65	3	False	red	40	[1350 1830  405  675]	[ 90 570 405 675]
459.555	6.0	2311816	2317844	ShowFixation	ANTI	66	3	False	red	460	[405 885 405 675]	[1035 1515  405  675]
465.583	0.2	2317844	2318083	BlankScreen	ANTI	66	3	False	red	460	[405 885 405 675]	[1035 1515  405  675]
465.822	1.0	2318083	2319083	ELCue	ANTI	66	3	False	red	460	[405 885 405 675]	[1035 1515  405  675]
467.228	2.0	2319489	2321518	ShowFixation	ANTI	67	3	False	red	600	[ 90 570 405 675]	[1350 1830  405  675]
469.257	0.2	2321518	2321753	BlankScreen	ANTI	67	3	False	red	600	[ 90 570 405 675]	[1350 1830  405  675]
469.493	1.0	2321754	2322754	ELCue	ANTI	67	3	False	red	600	[ 90 570 405 675]	[1350 1830  405  675]
470.896	6.0	2323157	2329188	ShowFixation	VGS	68	3	False	lime	600	[1350 1830  405  675]	[ 90 570 405 675]
476.927	0.2	2329188	2329427	BlankScreen	VGS	68	3	False	lime	600	[1350 1830  405  675]	[ 90 570 405 675]
477.166	1.0	2329427	2330427	ELCue	VGS	68	3	False	lime	600	[1350 1830  405  675]	[ 90 570 405 675]
478.576	6.0	2330837	2336863	ShowFixation	VGS	69	3	False	lime	180	[405 885 405 675]	[1035 1515  405  675]
484.602	0.2	2336863	2337103	BlankScreen	VGS	69	3	False	lime	180	[405 885 405 675]	[1035 1515  405  675]
484.842	1.0	2337103	2338103	ELCue	VGS	69	3	False	lime	180	[405 885 405 675]	[1035 1515  405  675]
486.249	2.0	2338510	2340538	ShowFixation	VGS	70	3	False	lime	600	[1350 1830  405  675]	[ 90 570 405 675]
488.277	0.2	2340538	2340773	BlankScreen	VGS	70	3	False	lime	600	[1350 1830  405  675]	[ 90 570 405 675]
488.512	1.0	2340773	2341773	ELCue	VGS	70	3	False	lime	600	[1350 1830  405  675]	[ 90 570 405 675]
489.922	6.0	2342183	2348208	ShowFixation	VGS	71	3	False	lime	460	[1035 1515  405  675]	[405 885 405 675]
495.947	0.2	2348208	2348447	BlankScreen	VGS	71	3	False	lime	460	[1035 1515  405  675]	[405 885 405 675]
496.186	1.0	2348447	2349447	ELCue	VGS	71	3	False	lime	460	[1035 1515  405  675]	[405 885 405 675]
497.596	6.0	2349857	2355882	ShowFixation	VGS	72	3	False	lime	600	[1350 1830  405  675]	[ 90 570 405 675]
503.621	0.2	2355882	2356121	BlankScreen	VGS	72	3	False	lime	600	[1350 1830  405  675]	[ 90 570 405 675]
503.86	1.0	2356121	2357121	ELCue	VGS	72	3	False	lime	600	[1350 1830  405  675]	[ 90 570 405 675]
505.252	6.0	2357513	2363540	ShowFixation	ANTI	73	3	False	red	40	[1350 1830  405  675]	[ 90 570 405 675]
511.279	0.2	2363540	2363779	BlankScreen	ANTI	73	3	False	red	40	[1350 1830  405  675]	[ 90 570 405 675]
511.518	1.0	2363779	2364779	ELCue	ANTI	73	3	False	red	40	[1350 1830  405  675]	[ 90 570 405 675]
512.926	6.0	2365187	2371214	ShowFixation	ANTI	74	3	False	red	600	[ 90 570 405 675]	[1350 1830  405  675]
518.953	0.2	2371214	2371453	BlankScreen	ANTI	74	3	False	red	600	[ 90 570 405 675]	[1350 1830  405  675]
519.192	1.0	2371453	2372453	ELCue	ANTI	74	3	False	red	600	[ 90 570 405 675]	[1350 1830  405  675]
520.6	6.0	2372861	2378888	ShowFixation	VGS	75	3	False	lime	40	[ 90 570 405 675]	[1350 1830  405  675]
526.627	0.2	2378888	2379128	BlankScreen	VGS	75	3	False	lime	40	[ 90 570 405 675]	[1350 1830  405  675]
526.867	1.0	2379128	2380128	ELCue	VGS	75	3	False	lime	40	[ 90 570 405 675]	[1350 1830  405  675]
528.274	2.0	2380535	2382562	ShowFixation	VGS	76	3	False	lime	180	[405 885 405 675]	[1035 1515  405  675]
530.301	0.2	2382562	2382798	BlankScreen	VGS	76	3	False	lime	180	[405 885 405 675]	[1035 1515  405  675]
530.537	1.0	2382798	2383798	ELCue	VGS	76	3	False	lime	180	[405 885 405 675]	[1035 1515  405  675]
531.942	2.0	2384203	2386233	ShowFixation	ANTI	77	3	False	red	180	[1035 1515  405  675]	[405 885 405 675]
533.972	0.2	2386233	2386468	BlankScreen	ANTI	77	3	False	red	180	[1035 1515  405  675]	[405 885 405 675]
534.207	1.0	2386468	2387468	ELCue	ANTI	77	3	False	red	180	[1035 1515  405  675]	[405 885 405 675]
535.614	2.0	2387875	2389903	ShowFixation	VGS	78	3	False	lime	460	[1035 1515  405  675]	[405 885 405 675]
537.642	0.2	2389903	2390138	BlankScreen	VGS	78	3	False	lime	460	[1035 1515  405  675]	[405 885 405 675]
537.877	1.0	2390138	2391138	ELCue	VGS	78	3	False	lime	460	[1035 1515  405  675]	[405 885 405 675]
539.284	6.0	2391545	2397573	ShowFixation	ANTI	79	3	False	red	40	[1350 1830  405  675]	[ 90 570 405 675]
545.312	0.2	2397573	2397813	BlankScreen	ANTI	79	3	False	red	40	[1350 1830  405  675]	[ 90 570 405 675]
545.552	1.0	2397813	2398813	ELCue	ANTI	79	3	False	red	40	[1350 1830  405  675]	[ 90 570 405 675]
546.941	2.0	2399202	2401231	ShowFixation	VGS	80	3	False	lime	600	[1350 1830  405  675]	[ 90 570 405 675]
548.97	0.2	2401231	2401466	BlankScreen	VGS	80	3	False	lime	600	[1350 1830  405  675]	[ 90 570 405 675]
549.205	1.0	2401466	2402466	ELCue	VGS	80	3	False	lime	600	[1350 1830  405  675]	[ 90 570 405 675]
611.081	6.0	2463342	2469379	ShowFixation	VGS	81	4	False	lime	600	[1350 1830  405  675]	[ 90 570 405 675]
617.118	0.2	2469379	2469618	BlankScreen	VGS	81	4	False	lime	600	[1350 1830  405  675]	[ 90 570 405 675]
617.357	1.0	2469618	2470618	ELCue	VGS	81	4	False	lime	600	[1350 1830  405  675]	[ 90 570 405 675]
618.765	2.0	2471026	2473053	ShowFixation	ANTI	82	4	False	red	40	[1350 1830  405  675]	[ 90 570 405 675]
620.792	0.2	2473053	2473288	BlankScreen	ANTI	82	4	False	red	40	[1350 1830  405  675]	[ 90 570 405 675]
621.027	1.0	2473288	2474288	ELCue	ANTI	82	4	False	red	40	[1350 1830  405  675]	[ 90 570 405 675]
622.436	2.0	2474697	2476723	ShowFixation	ANTI	83	4	False	red	40	[1350 1830  405  675]	[ 90 570 405 675]
624.462	0.2	2476723	2476958	BlankScreen	ANTI	83	4	False	red	40	[1350 1830  405  675]	[ 90 570 405 675]
624.697	1.0	2476958	2477958	ELCue	ANTI	83	4	False	red	40	[1350 1830  405  675]	[ 90 570 405 675]
626.101	2.0	2478362	2480393	ShowFixation	ANTI	84	4	False	red	180	[1035 1515  405  675]	[405 885 405 675]
628.132	0.2	2480393	2480629	BlankScreen	ANTI	84	4	False	red	180	[1035 1515  405  675]	[405 885 405 675]
628.368	1.0	2480629	2481629	ELCue	ANTI	84	4	False	red	180	[1035 1515  405  675]	[405 885 405 675]
629.776	6.0	2482037	2488064	ShowFixation	VGS	85	4	False	lime	40	[ 90 570 405 675]	[1350 1830  405  675]
635.803	0.2	2488064	2488303	BlankScreen	VGS	85	4	False	lime	40	[ 90 570 405 675]	[1350 1830  405  675]
636.042	1.0	2488303	2489303	ELCue	VGS	85	4	False	lime	40	[ 90 570 405 675]	[1350 1830  405  675]
637.45	2.0	2489711	2491738	ShowFixation	VGS	86	4	False	lime	460	[1035 1515  405  675]	[405 885 405 675]
639.477	0.2	2491738	2491973	BlankScreen	VGS	86	4	False	lime	460	[1035 1515  405  675]	[405 885 405 675]
639.712	1.0	2491973	2492973	ELCue	VGS	86	4	False	lime	460	[1035 1515  405  675]	[405 885 405 675]
641.123	2.0	2493384	2495425	ShowFixation	VGS	87	4	False	lime	460	[1035 1515  405  675]	[405 885 405 675]
643.164	0.2	2495425	2495660	BlankScreen	VGS	87	4	False	lime	460	[1035 1515  405  675]	[405 885 405 675]
643.399	1.0	2495660	2496660	ELCue	VGS	87	4	False	lime	460	[1035 1515  405  675]	[405 885 405 675]
644.792	2.0	2497053	2499078	ShowFixation	VGS	88	4	False	lime	180	[405 885 405 675]	[1035 1515  405  675]
646.817	0.2	2499078	2499314	BlankScreen	VGS	88	4	False	lime	180	[405 885 405 675]	[1035 1515  405  675]
647.053	1.0	2499314	2500314	ELCue	VGS	88	4	False	lime	180	[405 885 405 675]	[1035 1515  405  675]
648.436	6.0	2500697	2506732	ShowFixation	ANTI	89	4	False	red	180	[1035 1515  405  675]	[405 885 405 675]
654.471	0.2	2506732	2506971	BlankScreen	ANTI	89	4	False	red	180	[1035 1515  405  675]	[405 885 405 675]
654.71	1.0	2506971	2507971	ELCue	ANTI	89	4	False	red	180	[1035 1515  405  675]	[405 885 405 675]
656.101	2.0	2508362	2510390	ShowFixation	VGS	90	4	False	lime	600	[1350 1830  405  675]	[ 90 570 405 675]
658.129	0.2	2510390	2510625	BlankScreen	VGS	90	4	False	lime	600	[1350 1830  405  675]	[ 90 570 405 675]
658.364	1.0	2510625	2511625	ELCue	VGS	90	4	False	lime	600	[1350 1830  405  675]	[ 90 570 405 675]
659.766	6.0	2512027	2518060	ShowFixation	VGS	91	4	False	lime	180	[405 885 405 675]	[1035 1515  405  675]
665.799	0.2	2518060	2518299	BlankScreen	VGS	91	4	False	lime	180	[405 885 405 675]	[1035 1515  405  675]
666.038	1.0	2518299	2519299	ELCue	VGS	91	4	False	lime	180	[405 885 405 675]	[1035 1515  405  675]
667.447	6.0	2519708	2525734	ShowFixation	VGS	92	4	False	lime	180	[405 885 405 675]	[1035 1515  405  675]
673.473	0.2	2525734	2525973	BlankScreen	VGS	92	4	False	lime	180	[405 885 405 675]	[1035 1515  405  675]
673.712	1.0	2525973	2526973	ELCue	VGS	92	4	False	lime	180	[405 885 405 675]	[1035 1515  405  675]
675.119	6.0	2527380	2533408	ShowFixation	VGS	93	4	False	lime	460	[1035 1515  405  675]	[405 885 405 675]
681.147	0.2	2533408	2533648	BlankScreen	VGS	93	4	False	lime	460	[1035 1515  405  675]	[405 885 405 675]
681.387	1.0	2533648	2534648	ELCue	VGS	93	4	False	lime	460	[1035 1515  405  675]	[405 885 405 675]
682.795	6.0	2535056	2541083	ShowFixation	ANTI	94	4	False	red	600	[ 90 570 405 675]	[1350 1830  405  675]
688.822	0.2	2541083	2541322	BlankScreen	ANTI	94	4	False	red	600	[ 90 570 405 675]	[1350 1830  405  675]
689.061	1.0	2541322	2542322	ELCue	ANTI	94	4	False	red	600	[ 90 570 405 675]	[1350 1830  405  675]
690.468	6.0	2542729	2548757	ShowFixation	ANTI	95	4	False	red	460	[405 885 405 675]	[1035 1515  405  675]
696.497	0.2	2548758	2548996	BlankScreen	ANTI	95	4	False	red	460	[405 885 405 675]	[1035 1515  405  675]
696.736	1.0	2548997	2549997	ELCue	ANTI	95	4	False	red	460	[405 885 405 675]	[1035 1515  405  675]
698.142	6.0	2550403	2556432	ShowFixation	VGS	96	4	False	lime	460	[1035 1515  405  675]	[405 885 405 675]
704.171	0.2	2556432	2556671	BlankScreen	VGS	96	4	False	lime	460	[1035 1515  405  675]	[405 885 405 675]
704.41	1.0	2556671	2557671	ELCue	VGS	96	4	False	lime	460	[1035 1515  405  675]	[405 885 405 675]
705.817	6.0	2558078	2564106	ShowFixation	VGS	97	4	False	lime	40	[ 90 570 405 675]	[1350 1830  405  675]
711.845	0.2	2564106	2564346	BlankScreen	VGS	97	4	False	lime	40	[ 90 570 405 675]	[1350 1830  405  675]
712.085	1.0	2564346	2565346	ELCue	VGS	97	4	False	lime	40	[ 90 570 405 675]	[1350 1830  405  675]
713.502	6.0	2565763	2571797	ShowFixation	ANTI	98	4	False	red	40	[1350 1830  405  675]	[ 90 570 405 675]
719.536	0.2	2571797	2572037	BlankScreen	ANTI	98	4	False	red	40	[1350 1830  405  675]	[ 90 570 405 675]
719.776	1.0	2572037	2573037	ELCue	ANTI	98	4	False	red	40	[1350 1830  405  675]	[ 90 570 405 675]
721.19	2.0	2573451	2575488	ShowFixation	VGS	99	4	False	lime	40	[ 90 570 405 675]	[1350 1830  405  675]
723.227	0.2	2575488	2575724	BlankScreen	VGS	99	4	False	lime	40	[ 90 570 405 675]	[1350 1830  405  675]
723.463	1.0	2575724	2576724	ELCue	VGS	99	4	False	lime	40	[ 90 570 405 675]	[1350 1830  405  675]
724.87	2.0	2577131	2579158	ShowFixation	ANTI	100	4	False	red	600	[ 90 570 405 675]	[1350 1830  405  675]
726.897	0.2	2579158	2579394	BlankScreen	ANTI	100	4	False	red	600	[ 90 570 405 675]	[1350 1830  405  675]
727.133	1.0	2579394	2580394	ELCue	ANTI	100	4	False	red	600	[ 90 570 405 675]	[1350 1830  405  675]
728.519	2.0	2580780	2582812	ShowFixation	VGS	101	4	False	lime	600	[1350 1830  405  675]	[ 90 570 405 675]
730.551	0.2	2582812	2583047	BlankScreen	VGS	101	4	False	lime	600	[1350 1830  405  675]	[ 90 570 405 675]
730.786	1.0	2583047	2584047	ELCue	VGS	101	4	False	lime	600	[1350 1830  405  675]	[ 90 570 405 675]
732.173	6.0	2584434	2590466	ShowFixation	ANTI	102	4	False	red	460	[405 885 405 675]	[1035 1515  405  675]
738.205	0.2	2590466	2590705	BlankScreen	ANTI	102	4	False	red	460	[405 885 405 675]	[1035 1515  405  675]
738.444	1.0	2590705	2591705	ELCue	ANTI	102	4	False	red	460	[405 885 405 675]	[1035 1515  405  675]
739.851	6.0	2592112	2598140	ShowFixation	VGS	103	4	False	lime	600	[1350 1830  405  675]	[ 90 570 405 675]
745.879	0.2	2598140	2598379	BlankScreen	VGS	103	4	False	lime	600	[1350 1830  405  675]	[ 90 570 405 675]
746.118	1.0	2598379	2599379	ELCue	VGS	103	4	False	lime	600	[1350 1830  405  675]	[ 90 570 405 675]
747.527	2.0	2599788	2601814	ShowFixation	ANTI	104	4	False	red	460	[405 885 405 675]	[1035 1515  405  675]
749.553	0.2	2601814	2602050	BlankScreen	ANTI	104	4	False	red	460	[405 885 405 675]	[1035 1515  405  675]
749.789	1.0	2602050	2603050	ELCue	ANTI	104	4	False	red	460	[405 885 405 675]	[1035 1515  405  675]
751.175	6.0	2603436	2609468	ShowFixation	ANTI	105	4	False	red	40	[1350 1830  405  675]	[ 90 570 405 675]
757.207	0.2	2609468	2609707	BlankScreen	ANTI	105	4	False	red	40	[1350 1830  405  675]	[ 90 570 405 675]
757.446	1.0	2609707	2610707	ELCue	ANTI	105	4	False	red	40	[1350 1830  405  675]	[ 90 570 405 675]
758.851	6.0	2611112	2617142	ShowFixation	ANTI	106	4	False	red	600	[ 90 570 405 675]	[1350 1830  405  675]
764.881	0.2	2617142	2617381	BlankScreen	ANTI	106	4	False	red	600	[ 90 570 405 675]	[1350 1830  405  675]
765.12	1.0	2617381	2618381	ELCue	ANTI	106	4	False	red	600	[ 90 570 405 675]	[1350 1830  405  675]
766.53	2.0	2618791	2620816	ShowFixation	VGS	107	4	False	lime	180	[405 885 405 675]	[1035 1515  405  675]
768.555	0.2	2620816	2621052	BlankScreen	VGS	107	4	False	lime	180	[405 885 405 675]	[1035 1515  405  675]
768.791	1.0	2621052	2622052	ELCue	VGS	107	4	False	lime	180	[405 885 405 675]	[1035 1515  405  675]
770.194	2.0	2622455	2624487	ShowFixation	ANTI	108	4	False	red	180	[1035 1515  405  675]	[405 885 405 675]
772.226	0.2	2624487	2624722	BlankScreen	ANTI	108	4	False	red	180	[1035 1515  405  675]	[405 885 405 675]
772.461	1.0	2624722	2625722	ELCue	ANTI	108	4	False	red	180	[1035 1515  405  675]	[405 885 405 675]
773.869	2.0	2626130	2628157	ShowFixation	ANTI	109	4	False	red	600	[ 90 570 405 675]	[1350 1830  405  675]
775.896	0.2	2628157	2628392	BlankScreen	ANTI	109	4	False	red	600	[ 90 570 405 675]	[1350 1830  405  675]
776.131	1.0	2628392	2629392	ELCue	ANTI	109	4	False	red	600	[ 90 570 405 675]	[1350 1830  405  675]
777.543	6.0	2629804	2635844	ShowFixation	ANTI	110	4	False	red	180	[1035 1515  405  675]	[405 885 405 675]
783.583	0.2	2635844	2636083	BlankScreen	ANTI	110	4	False	red	180	[1035 1515  405  675]	[405 885 405 675]
783.822	1.0	2636083	2637083	ELCue	ANTI	110	4	False	red	180	[1035 1515  405  675]	[405 885 405 675]
785.216	2.0	2637477	2639501	ShowFixation	ANTI	111	4	False	red	460	[405 885 405 675]	[1035 1515  405  675]
787.24	0.2	2639501	2639737	BlankScreen	ANTI	111	4	False	red	460	[405 885 405 675]	[1035 1515  405  675]
787.476	1.0	2639737	2640737	ELCue	ANTI	111	4	False	red	460	[405 885 405 675]	[1035 1515  405  675]
788.888	2.0	2641149	2643188	ShowFixation	VGS	112	4	False	lime	40	[ 90 570 405 675]	[1350 1830  405  675]
790.927	0.2	2643188	2643424	BlankScreen	VGS	112	4	False	lime	40	[ 90 570 405 675]	[1350 1830  405  675]
791.163	1.0	2643424	2644424	ELCue	VGS	112	4	False	lime	40	[ 90 570 405 675]	[1350 1830  405  675]
