onset	duration	startTime	stopTime	eventIdentifier	trial_type	trial_number	block_number	is_practice	fixation_color	cue_side	aoi_correct	aoi_incorrect
0.144	6.0	795083	801108	ShowFixation	ANTI	1	1	True	red	600	[ 90 570 405 675]	[1350 1830  405  675]
6.169	0.2	801108	801347	BlankScreen	ANTI	1	1	True	red	600	[ 90 570 405 675]	[1350 1830  405  675]
6.408	1.0	801347	802387	ELCue	ANTI	1	1	True	red	600	[ 90 570 405 675]	[1350 1830  405  675]
7.852	6.0	802791	809416	ShowFixation	ANTI	2	1	True	red	40	[1350 1830  405  675]	[ 90 570 405 675]
14.477	0.2	809416	809655	BlankScreen	ANTI	2	1	True	red	40	[1350 1830  405  675]	[ 90 570 405 675]
14.716	1.0	809655	810696	ELCue	ANTI	2	1	True	red	40	[1350 1830  405  675]	[ 90 570 405 675]
16.159	2.0	811098	813741	ShowFixation	VGS	3	1	True	lime	600	[1350 1830  405  675]	[ 90 570 405 675]
18.802	0.2	813741	813976	BlankScreen	VGS	3	1	True	lime	600	[1350 1830  405  675]	[ 90 570 405 675]
19.037	1.0	813976	815017	ELCue	VGS	3	1	True	lime	600	[1350 1830  405  675]	[ 90 570 405 675]
20.448	6.0	815387	822063	ShowFixation	VGS	4	1	True	lime	460	[1035 1515  405  675]	[405 885 405 675]
27.124	0.2	822063	822302	BlankScreen	VGS	4	1	True	lime	460	[1035 1515  405  675]	[405 885 405 675]
27.363	1.0	822302	823342	ELCue	VGS	4	1	True	lime	460	[1035 1515  405  675]	[405 885 405 675]
28.803	2.0	823742	826388	ShowFixation	ANTI	5	1	True	red	180	[1035 1515  405  675]	[405 885 405 675]
31.449	0.2	826388	826622	BlankScreen	ANTI	5	1	True	red	180	[1035 1515  405  675]	[405 885 405 675]
31.683	1.0	826622	827663	ELCue	ANTI	5	1	True	red	180	[1035 1515  405  675]	[405 885 405 675]
33.128	2.0	828067	830709	ShowFixation	VGS	6	1	True	lime	40	[ 90 570 405 675]	[1350 1830  405  675]
35.77	0.2	830709	830943	BlankScreen	VGS	6	1	True	lime	40	[ 90 570 405 675]	[1350 1830  405  675]
36.004	1.0	830943	831983	ELCue	VGS	6	1	True	lime	40	[ 90 570 405 675]	[1350 1830  405  675]
37.43	6.0	832369	839013	ShowFixation	ANTI	7	1	True	red	460	[405 885 405 675]	[1035 1515  405  675]
44.074	0.2	839013	839252	BlankScreen	ANTI	7	1	True	red	460	[405 885 405 675]	[1035 1515  405  675]
44.313	1.0	839252	840292	ELCue	ANTI	7	1	True	red	460	[405 885 405 675]	[1035 1515  405  675]
45.756	6.0	840695	847338	ShowFixation	VGS	8	1	True	lime	40	[ 90 570 405 675]	[1350 1830  405  675]
52.399	0.2	847338	847577	BlankScreen	VGS	8	1	True	lime	40	[ 90 570 405 675]	[1350 1830  405  675]
52.638	1.0	847577	848618	ELCue	VGS	8	1	True	lime	40	[ 90 570 405 675]	[1350 1830  405  675]
54.082	6.0	849021	855663	ShowFixation	VGS	9	1	True	lime	180	[405 885 405 675]	[1035 1515  405  675]
60.724	0.2	855663	855902	BlankScreen	VGS	9	1	True	lime	180	[405 885 405 675]	[1035 1515  405  675]
60.963	1.0	855902	856942	ELCue	VGS	9	1	True	lime	180	[405 885 405 675]	[1035 1515  405  675]
62.412	2.0	857351	859971	ShowFixation	ANTI	10	1	True	red	460	[405 885 405 675]	[1035 1515  405  675]
65.032	0.2	859971	860189	BlankScreen	ANTI	10	1	True	red	460	[405 885 405 675]	[1035 1515  405  675]
65.25	1.0	860189	861213	ELCue	ANTI	10	1	True	red	460	[405 885 405 675]	[1035 1515  405  675]
66.68	2.0	861619	864258	ShowFixation	ANTI	11	1	True	red	600	[ 90 570 405 675]	[1350 1830  405  675]
69.319	0.2	864258	864494	BlankScreen	ANTI	11	1	True	red	600	[ 90 570 405 675]	[1350 1830  405  675]
69.555	1.0	864494	865534	ELCue	ANTI	11	1	True	red	600	[ 90 570 405 675]	[1350 1830  405  675]
70.979	2.0	865918	868563	ShowFixation	VGS	12	1	True	lime	180	[405 885 405 675]	[1035 1515  405  675]
73.624	0.2	868563	868781	BlankScreen	VGS	12	1	True	lime	180	[405 885 405 675]	[1035 1515  405  675]
73.842	1.0	868781	869804	ELCue	VGS	12	1	True	lime	180	[405 885 405 675]	[1035 1515  405  675]
75.271	6.0	870210	876850	ShowFixation	VGS	13	1	True	lime	600	[1350 1830  405  675]	[ 90 570 405 675]
81.911	0.2	876850	877089	BlankScreen	VGS	13	1	True	lime	600	[1350 1830  405  675]	[ 90 570 405 675]
82.15	1.0	877089	878130	ELCue	VGS	13	1	True	lime	600	[1350 1830  405  675]	[ 90 570 405 675]
83.561	2.0	878500	881175	ShowFixation	ANTI	14	1	True	red	40	[1350 1830  405  675]	[ 90 570 405 675]
86.236	0.2	881175	881410	BlankScreen	ANTI	14	1	True	red	40	[1350 1830  405  675]	[ 90 570 405 675]
86.471	1.0	881410	882451	ELCue	ANTI	14	1	True	red	40	[1350 1830  405  675]	[ 90 570 405 675]
87.922	2.0	882861	885496	ShowFixation	VGS	15	1	True	lime	460	[1035 1515  405  675]	[405 885 405 675]
90.557	0.2	885496	885731	BlankScreen	VGS	15	1	True	lime	460	[1035 1515  405  675]	[405 885 405 675]
90.792	1.0	885731	886772	ELCue	VGS	15	1	True	lime	460	[1035 1515  405  675]	[405 885 405 675]
92.242	6.0	887181	893817	ShowFixation	ANTI	16	1	True	red	180	[1035 1515  405  675]	[405 885 405 675]
98.878	0.2	893817	894056	BlankScreen	ANTI	16	1	True	red	180	[1035 1515  405  675]	[405 885 405 675]
99.117	1.0	894056	895097	ELCue	ANTI	16	1	True	red	180	[1035 1515  405  675]	[405 885 405 675]
134.184	6.0	929123	935158	ShowFixation	ANTI	17	2	False	red	460	[405 885 405 675]	[1035 1515  405  675]
140.219	0.2	935158	935397	BlankScreen	ANTI	17	2	False	red	460	[405 885 405 675]	[1035 1515  405  675]
140.458	1.0	935397	936397	ELCue	ANTI	17	2	False	red	460	[405 885 405 675]	[1035 1515  405  675]
141.835	2.0	936774	938798	ShowFixation	VGS	18	2	False	lime	600	[1350 1830  405  675]	[ 90 570 405 675]
143.859	0.2	938798	939034	BlankScreen	VGS	18	2	False	lime	600	[1350 1830  405  675]	[ 90 570 405 675]
144.095	1.0	939034	940034	ELCue	VGS	18	2	False	lime	600	[1350 1830  405  675]	[ 90 570 405 675]
145.504	2.0	940443	942469	ShowFixation	ANTI	19	2	False	red	600	[ 90 570 405 675]	[1350 1830  405  675]
147.53	0.2	942469	942704	BlankScreen	ANTI	19	2	False	red	600	[ 90 570 405 675]	[1350 1830  405  675]
147.765	1.0	942704	943704	ELCue	ANTI	19	2	False	red	600	[ 90 570 405 675]	[1350 1830  405  675]
149.177	2.0	944116	946156	ShowFixation	ANTI	20	2	False	red	180	[1035 1515  405  675]	[405 885 405 675]
151.217	0.2	946156	946391	BlankScreen	ANTI	20	2	False	red	180	[1035 1515  405  675]	[405 885 405 675]
151.452	1.0	946391	947391	ELCue	ANTI	20	2	False	red	180	[1035 1515  405  675]	[405 885 405 675]
152.843	6.0	947782	953809	ShowFixation	ANTI	21	2	False	red	600	[ 90 570 405 675]	[1350 1830  405  675]
158.87	0.2	953809	954049	BlankScreen	ANTI	21	2	False	red	600	[ 90 570 405 675]	[1350 1830  405  675]
159.11	1.0	954049	955049	ELCue	ANTI	21	2	False	red	600	[ 90 570 405 675]	[1350 1830  405  675]
160.52	2.0	955459	957484	ShowFixation	VGS	22	2	False	lime	460	[1035 1515  405  675]	[405 885 405 675]
162.545	0.2	957484	957719	BlankScreen	VGS	22	2	False	lime	460	[1035 1515  405  675]	[405 885 405 675]
162.78	1.0	957719	958719	ELCue	VGS	22	2	False	lime	460	[1035 1515  405  675]	[405 885 405 675]
164.186	6.0	959125	965154	ShowFixation	VGS	23	2	False	lime	40	[ 90 570 405 675]	[1350 1830  405  675]
170.215	0.2	965154	965393	BlankScreen	VGS	23	2	False	lime	40	[ 90 570 405 675]	[1350 1830  405  675]
170.454	1.0	965393	966393	ELCue	VGS	23	2	False	lime	40	[ 90 570 405 675]	[1350 1830  405  675]
171.86	6.0	966799	972828	ShowFixation	ANTI	24	2	False	red	40	[1350 1830  405  675]	[ 90 570 405 675]
177.889	0.2	972828	973067	BlankScreen	ANTI	24	2	False	red	40	[1350 1830  405  675]	[ 90 570 405 675]
178.128	1.0	973067	974067	ELCue	ANTI	24	2	False	red	40	[1350 1830  405  675]	[ 90 570 405 675]
179.532	6.0	974471	980502	ShowFixation	VGS	25	2	False	lime	180	[405 885 405 675]	[1035 1515  405  675]
185.563	0.2	980502	980742	BlankScreen	VGS	25	2	False	lime	180	[405 885 405 675]	[1035 1515  405  675]
185.803	1.0	980742	981742	ELCue	VGS	25	2	False	lime	180	[405 885 405 675]	[1035 1515  405  675]
187.211	2.0	982150	984177	ShowFixation	VGS	26	2	False	lime	40	[ 90 570 405 675]	[1350 1830  405  675]
189.238	0.2	984177	984413	BlankScreen	VGS	26	2	False	lime	40	[ 90 570 405 675]	[1350 1830  405  675]
189.474	1.0	984413	985413	ELCue	VGS	26	2	False	lime	40	[ 90 570 405 675]	[1350 1830  405  675]
190.878	2.0	985817	987847	ShowFixation	VGS	27	2	False	lime	600	[1350 1830  405  675]	[ 90 570 405 675]
192.909	0.2	987848	988082	BlankScreen	VGS	27	2	False	lime	600	[1350 1830  405  675]	[ 90 570 405 675]
193.143	1.0	988082	989082	ELCue	VGS	27	2	False	lime	600	[1350 1830  405  675]	[ 90 570 405 675]
194.551	6.0	989490	995518	ShowFixation	ANTI	28	2	False	red	180	[1035 1515  405  675]	[405 885 405 675]
200.579	0.2	995518	995756	BlankScreen	ANTI	28	2	False	red	180	[1035 1515  405  675]	[405 885 405 675]
200.818	1.0	995757	996757	ELCue	ANTI	28	2	False	red	180	[1035 1515  405  675]	[405 885 405 675]
202.226	2.0	997165	999192	ShowFixation	VGS	29	2	False	lime	180	[405 885 405 675]	[1035 1515  405  675]
204.253	0.2	999192	999427	BlankScreen	VGS	29	2	False	lime	180	[405 885 405 675]	[1035 1515  405  675]
204.489	1.0	999428	1000428	ELCue	VGS	29	2	False	lime	180	[405 885 405 675]	[1035 1515  405  675]
205.896	2.0	1000835	1002863	ShowFixation	ANTI	30	2	False	red	460	[405 885 405 675]	[1035 1515  405  675]
207.924	0.2	1002863	1003097	BlankScreen	ANTI	30	2	False	red	460	[405 885 405 675]	[1035 1515  405  675]
208.159	1.0	1003098	1004098	ELCue	ANTI	30	2	False	red	460	[405 885 405 675]	[1035 1515  405  675]
209.567	6.0	1004506	1010533	ShowFixation	VGS	31	2	False	lime	460	[1035 1515  405  675]	[405 885 405 675]
215.594	0.2	1010533	1010772	BlankScreen	VGS	31	2	False	lime	460	[1035 1515  405  675]	[405 885 405 675]
215.833	1.0	1010772	1011772	ELCue	VGS	31	2	False	lime	460	[1035 1515  405  675]	[405 885 405 675]
217.235	6.0	1012174	1018207	ShowFixation	VGS	32	2	False	lime	600	[1350 1830  405  675]	[ 90 570 405 675]
223.268	0.2	1018207	1018447	BlankScreen	VGS	32	2	False	lime	600	[1350 1830  405  675]	[ 90 570 405 675]
223.508	1.0	1018447	1019447	ELCue	VGS	32	2	False	lime	600	[1350 1830  405  675]	[ 90 570 405 675]
224.9	6.0	1019839	1025865	ShowFixation	VGS	33	2	False	lime	180	[405 885 405 675]	[1035 1515  405  675]
230.926	0.2	1025865	1026104	BlankScreen	VGS	33	2	False	lime	180	[405 885 405 675]	[1035 1515  405  675]
231.165	1.0	1026104	1027104	ELCue	VGS	33	2	False	lime	180	[405 885 405 675]	[1035 1515  405  675]
232.571	6.0	1027510	1033539	ShowFixation	ANTI	34	2	False	red	600	[ 90 570 405 675]	[1350 1830  405  675]
238.6	0.2	1033539	1033778	BlankScreen	ANTI	34	2	False	red	600	[ 90 570 405 675]	[1350 1830  405  675]
238.839	1.0	1033778	1034778	ELCue	ANTI	34	2	False	red	600	[ 90 570 405 675]	[1350 1830  405  675]
240.248	2.0	1035187	1037213	ShowFixation	ANTI	35	2	False	red	460	[405 885 405 675]	[1035 1515  405  675]
242.274	0.2	1037213	1037449	BlankScreen	ANTI	35	2	False	red	460	[405 885 405 675]	[1035 1515  405  675]
242.51	1.0	1037449	1038449	ELCue	ANTI	35	2	False	red	460	[405 885 405 675]	[1035 1515  405  675]
243.917	2.0	1038856	1040884	ShowFixation	ANTI	36	2	False	red	600	[ 90 570 405 675]	[1350 1830  405  675]
245.945	0.2	1040884	1041119	BlankScreen	ANTI	36	2	False	red	600	[ 90 570 405 675]	[1350 1830  405  675]
246.18	1.0	1041119	1042119	ELCue	ANTI	36	2	False	red	600	[ 90 570 405 675]	[1350 1830  405  675]
247.59	6.0	1042529	1048554	ShowFixation	ANTI	37	2	False	red	40	[1350 1830  405  675]	[ 90 570 405 675]
253.615	0.2	1048554	1048793	BlankScreen	ANTI	37	2	False	red	40	[1350 1830  405  675]	[ 90 570 405 675]
253.854	1.0	1048793	1049793	ELCue	ANTI	37	2	False	red	40	[1350 1830  405  675]	[ 90 570 405 675]
255.261	2.0	1050200	1052228	ShowFixation	VGS	38	2	False	lime	40	[ 90 570 405 675]	[1350 1830  405  675]
257.289	0.2	1052228	1052463	BlankScreen	VGS	38	2	False	lime	40	[ 90 570 405 675]	[1350 1830  405  675]
257.524	1.0	1052463	1053463	ELCue	VGS	38	2	False	lime	40	[ 90 570 405 675]	[1350 1830  405  675]
258.934	6.0	1053873	1059898	ShowFixation	ANTI	39	2	False	red	180	[1035 1515  405  675]	[405 885 405 675]
264.959	0.2	1059898	1060138	BlankScreen	ANTI	39	2	False	red	180	[1035 1515  405  675]	[405 885 405 675]
265.199	1.0	1060138	1061138	ELCue	ANTI	39	2	False	red	180	[1035 1515  405  675]	[405 885 405 675]
266.608	6.0	1061547	1067573	ShowFixation	VGS	40	2	False	lime	460	[1035 1515  405  675]	[405 885 405 675]
272.634	0.2	1067573	1067812	BlankScreen	VGS	40	2	False	lime	460	[1035 1515  405  675]	[405 885 405 675]
272.873	1.0	1067812	1068812	ELCue	VGS	40	2	False	lime	460	[1035 1515  405  675]	[405 885 405 675]
274.278	6.0	1069217	1075247	ShowFixation	VGS	41	2	False	lime	40	[ 90 570 405 675]	[1350 1830  405  675]
280.308	0.2	1075247	1075486	BlankScreen	VGS	41	2	False	lime	40	[ 90 570 405 675]	[1350 1830  405  675]
280.547	1.0	1075486	1076486	ELCue	VGS	41	2	False	lime	40	[ 90 570 405 675]	[1350 1830  405  675]
281.952	6.0	1076891	1082921	ShowFixation	ANTI	42	2	False	red	460	[405 885 405 675]	[1035 1515  405  675]
287.982	0.2	1082921	1083160	BlankScreen	ANTI	42	2	False	red	460	[405 885 405 675]	[1035 1515  405  675]
288.221	1.0	1083160	1084160	ELCue	ANTI	42	2	False	red	460	[405 885 405 675]	[1035 1515  405  675]
289.631	2.0	1084570	1086595	ShowFixation	ANTI	43	2	False	red	180	[1035 1515  405  675]	[405 885 405 675]
291.656	0.2	1086595	1086831	BlankScreen	ANTI	43	2	False	red	180	[1035 1515  405  675]	[405 885 405 675]
291.892	1.0	1086831	1087831	ELCue	ANTI	43	2	False	red	180	[1035 1515  405  675]	[405 885 405 675]
293.297	2.0	1088236	1090266	ShowFixation	VGS	44	2	False	lime	180	[405 885 405 675]	[1035 1515  405  675]
295.327	0.2	1090266	1090501	BlankScreen	VGS	44	2	False	lime	180	[405 885 405 675]	[1035 1515  405  675]
295.562	1.0	1090501	1091501	ELCue	VGS	44	2	False	lime	180	[405 885 405 675]	[1035 1515  405  675]
296.968	6.0	1091907	1097936	ShowFixation	VGS	45	2	False	lime	600	[1350 1830  405  675]	[ 90 570 405 675]
302.997	0.2	1097936	1098175	BlankScreen	VGS	45	2	False	lime	600	[1350 1830  405  675]	[ 90 570 405 675]
303.236	1.0	1098175	1099175	ELCue	VGS	45	2	False	lime	600	[1350 1830  405  675]	[ 90 570 405 675]
304.626	2.0	1099565	1101593	ShowFixation	ANTI	46	2	False	red	40	[1350 1830  405  675]	[ 90 570 405 675]
306.654	0.2	1101593	1101829	BlankScreen	ANTI	46	2	False	red	40	[1350 1830  405  675]	[ 90 570 405 675]
306.89	1.0	1101829	1102829	ELCue	ANTI	46	2	False	red	40	[1350 1830  405  675]	[ 90 570 405 675]
308.297	2.0	1103236	1105264	ShowFixation	ANTI	47	2	False	red	40	[1350 1830  405  675]	[ 90 570 405 675]
310.325	0.2	1105264	1105499	BlankScreen	ANTI	47	2	False	red	40	[1350 1830  405  675]	[ 90 570 405 675]
310.56	1.0	1105499	1106499	ELCue	ANTI	47	2	False	red	40	[1350 1830  405  675]	[ 90 570 405 675]
311.952	2.0	1106891	1108917	ShowFixation	VGS	48	2	False	lime	460	[1035 1515  405  675]	[405 885 405 675]
313.978	0.2	1108917	1109153	BlankScreen	VGS	48	2	False	lime	460	[1035 1515  405  675]	[405 885 405 675]
314.214	1.0	1109153	1110153	ELCue	VGS	48	2	False	lime	460	[1035 1515  405  675]	[405 885 405 675]
376.4	2.0	1171339	1173365	ShowFixation	VGS	49	3	False	lime	40	[ 90 570 405 675]	[1350 1830  405  675]
378.426	0.2	1173365	1173601	BlankScreen	VGS	49	3	False	lime	40	[ 90 570 405 675]	[1350 1830  405  675]
378.662	1.0	1173601	1174601	ELCue	VGS	49	3	False	lime	40	[ 90 570 405 675]	[1350 1830  405  675]
380.036	2.0	1174975	1177002	ShowFixation	ANTI	50	3	False	red	180	[1035 1515  405  675]	[405 885 405 675]
382.063	0.2	1177002	1177238	BlankScreen	ANTI	50	3	False	red	180	[1035 1515  405  675]	[405 885 405 675]
382.299	1.0	1177238	1178238	ELCue	ANTI	50	3	False	red	180	[1035 1515  405  675]	[405 885 405 675]
383.707	6.0	1178646	1184673	ShowFixation	VGS	51	3	False	lime	180	[405 885 405 675]	[1035 1515  405  675]
389.734	0.2	1184673	1184912	BlankScreen	VGS	51	3	False	lime	180	[405 885 405 675]	[1035 1515  405  675]
389.973	1.0	1184912	1185912	ELCue	VGS	51	3	False	lime	180	[405 885 405 675]	[1035 1515  405  675]
391.379	2.0	1186318	1188347	ShowFixation	ANTI	52	3	False	red	460	[405 885 405 675]	[1035 1515  405  675]
393.408	0.2	1188347	1188582	BlankScreen	ANTI	52	3	False	red	460	[405 885 405 675]	[1035 1515  405  675]
393.643	1.0	1188582	1189582	ELCue	ANTI	52	3	False	red	460	[405 885 405 675]	[1035 1515  405  675]
395.044	6.0	1189983	1196017	ShowFixation	VGS	53	3	False	lime	460	[1035 1515  405  675]	[405 885 405 675]
401.078	0.2	1196017	1196256	BlankScreen	VGS	53	3	False	lime	460	[1035 1515  405  675]	[405 885 405 675]
401.317	1.0	1196256	1197256	ELCue	VGS	53	3	False	lime	460	[1035 1515  405  675]	[405 885 405 675]
402.721	2.0	1197660	1199691	ShowFixation	ANTI	54	3	False	red	40	[1350 1830  405  675]	[ 90 570 405 675]
404.752	0.2	1199691	1199927	BlankScreen	ANTI	54	3	False	red	40	[1350 1830  405  675]	[ 90 570 405 675]
404.988	1.0	1199927	1200927	ELCue	ANTI	54	3	False	red	40	[1350 1830  405  675]	[ 90 570 405 675]
406.395	2.0	1201334	1203362	ShowFixation	VGS	55	3	False	lime	460	[1035 1515  405  675]	[405 885 405 675]
408.423	0.2	1203362	1203597	BlankScreen	VGS	55	3	False	lime	460	[1035 1515  405  675]	[405 885 405 675]
408.658	1.0	1203597	1204597	ELCue	VGS	55	3	False	lime	460	[1035 1515  405  675]	[405 885 405 675]
410.066	2.0	1205005	1207032	ShowFixation	VGS	56	3	False	lime	40	[ 90 570 405 675]	[1350 1830  405  675]
412.093	0.2	1207032	1207267	BlankScreen	VGS	56	3	False	lime	40	[ 90 570 405 675]	[1350 1830  405  675]
412.328	1.0	1207267	1208267	ELCue	VGS	56	3	False	lime	40	[ 90 570 405 675]	[1350 1830  405  675]
413.718	2.0	1208657	1210685	ShowFixation	ANTI	57	3	False	red	40	[1350 1830  405  675]	[ 90 570 405 675]
415.746	0.2	1210685	1210921	BlankScreen	ANTI	57	3	False	red	40	[1350 1830  405  675]	[ 90 570 405 675]
415.982	1.0	1210921	1211921	ELCue	ANTI	57	3	False	red	40	[1350 1830  405  675]	[ 90 570 405 675]
417.389	6.0	1212328	1218356	ShowFixation	ANTI	58	3	False	red	40	[1350 1830  405  675]	[ 90 570 405 675]
423.417	0.2	1218356	1218595	BlankScreen	ANTI	58	3	False	red	40	[1350 1830  405  675]	[ 90 570 405 675]
423.656	1.0	1218595	1219595	ELCue	ANTI	58	3	False	red	40	[1350 1830  405  675]	[ 90 570 405 675]
425.065	6.0	1220004	1226030	ShowFixation	VGS	59	3	False	lime	40	[ 90 570 405 675]	[1350 1830  405  675]
431.091	0.2	1226030	1226269	BlankScreen	VGS	59	3	False	lime	40	[ 90 570 405 675]	[1350 1830  405  675]
431.33	1.0	1226269	1227269	ELCue	VGS	59	3	False	lime	40	[ 90 570 405 675]	[1350 1830  405  675]
432.74	2.0	1227679	1229704	ShowFixation	VGS	60	3	False	lime	600	[1350 1830  405  675]	[ 90 570 405 675]
434.765	0.2	1229704	1229940	BlankScreen	VGS	60	3	False	lime	600	[1350 1830  405  675]	[ 90 570 405 675]
435.001	1.0	1229940	1230940	ELCue	VGS	60	3	False	lime	600	[1350 1830  405  675]	[ 90 570 405 675]
436.414	6.0	1231353	1237391	ShowFixation	ANTI	61	3	False	red	460	[405 885 405 675]	[1035 1515  405  675]
442.452	0.2	1237391	1237631	BlankScreen	ANTI	61	3	False	red	460	[405 885 405 675]	[1035 1515  405  675]
442.692	1.0	1237631	1238631	ELCue	ANTI	61	3	False	red	460	[405 885 405 675]	[1035 1515  405  675]
444.1	6.0	1239039	1245065	ShowFixation	VGS	62	3	False	lime	600	[1350 1830  405  675]	[ 90 570 405 675]
450.126	0.2	1245065	1245305	BlankScreen	VGS	62	3	False	lime	600	[1350 1830  405  675]	[ 90 570 405 675]
450.366	1.0	1245305	1246305	ELCue	VGS	62	3	False	lime	600	[1350 1830  405  675]	[ 90 570 405 675]
451.776	2.0	1246715	1248740	ShowFixation	VGS	63	3	False	lime	600	[1350 1830  405  675]	[ 90 570 405 675]
453.801	0.2	1248740	1248975	BlankScreen	VGS	63	3	False	lime	600	[1350 1830  405  675]	[ 90 570 405 675]
454.036	1.0	1248975	1249975	ELCue	VGS	63	3	False	lime	600	[1350 1830  405  675]	[ 90 570 405 675]
455.444	6.0	1250383	1256410	ShowFixation	VGS	64	3	False	lime	600	[1350 1830  405  675]	[ 90 570 405 675]
461.471	0.2	1256410	1256649	BlankScreen	VGS	64	3	False	lime	600	[1350 1830  405  675]	[ 90 570 405 675]
461.71	1.0	1256649	1257649	ELCue	VGS	64	3	False	lime	600	[1350 1830  405  675]	[ 90 570 405 675]
463.119	6.0	1258058	1264084	ShowFixation	VGS	65	3	False	lime	460	[1035 1515  405  675]	[405 885 405 675]
469.145	0.2	1264084	1264324	BlankScreen	VGS	65	3	False	lime	460	[1035 1515  405  675]	[405 885 405 675]
469.385	1.0	1264324	1265324	ELCue	VGS	65	3	False	lime	460	[1035 1515  405  675]	[405 885 405 675]
470.795	6.0	1265734	1271758	ShowFixation	VGS	66	3	False	lime	40	[ 90 570 405 675]	[1350 1830  405  675]
476.819	0.2	1271758	1271998	BlankScreen	VGS	66	3	False	lime	40	[ 90 570 405 675]	[1350 1830  405  675]
477.059	1.0	1271998	1272998	ELCue	VGS	66	3	False	lime	40	[ 90 570 405 675]	[1350 1830  405  675]
478.467	6.0	1273406	1279433	ShowFixation	ANTI	67	3	False	red	600	[ 90 570 405 675]	[1350 1830  405  675]
484.494	0.2	1279433	1279672	BlankScreen	ANTI	67	3	False	red	600	[ 90 570 405 675]	[1350 1830  405  675]
484.733	1.0	1279672	1280672	ELCue	ANTI	67	3	False	red	600	[ 90 570 405 675]	[1350 1830  405  675]
486.145	6.0	1281084	1287124	ShowFixation	ANTI	68	3	False	red	180	[1035 1515  405  675]	[405 885 405 675]
492.185	0.2	1287124	1287363	BlankScreen	ANTI	68	3	False	red	180	[1035 1515  405  675]	[405 885 405 675]
492.424	1.0	1287363	1288363	ELCue	ANTI	68	3	False	red	180	[1035 1515  405  675]	[405 885 405 675]
493.834	6.0	1288773	1294798	ShowFixation	ANTI	69	3	False	red	460	[405 885 405 675]	[1035 1515  405  675]
499.859	0.2	1294798	1295037	BlankScreen	ANTI	69	3	False	red	460	[405 885 405 675]	[1035 1515  405  675]
500.098	1.0	1295037	1296037	ELCue	ANTI	69	3	False	red	460	[405 885 405 675]	[1035 1515  405  675]
501.502	2.0	1296441	1298472	ShowFixation	ANTI	70	3	False	red	600	[ 90 570 405 675]	[1350 1830  405  675]
503.533	0.2	1298472	1298707	BlankScreen	ANTI	70	3	False	red	600	[ 90 570 405 675]	[1350 1830  405  675]
503.769	1.0	1298708	1299708	ELCue	ANTI	70	3	False	red	600	[ 90 570 405 675]	[1350 1830  405  675]
505.177	2.0	1300116	1302142	ShowFixation	ANTI	71	3	False	red	460	[405 885 405 675]	[1035 1515  405  675]
507.204	0.2	1302143	1302378	BlankScreen	ANTI	71	3	False	red	460	[405 885 405 675]	[1035 1515  405  675]
507.439	1.0	1302378	1303378	ELCue	ANTI	71	3	False	red	460	[405 885 405 675]	[1035 1515  405  675]
508.843	2.0	1303782	1305813	ShowFixation	VGS	72	3	False	lime	460	[1035 1515  405  675]	[405 885 405 675]
510.875	0.2	1305814	1306048	BlankScreen	VGS	72	3	False	lime	460	[1035 1515  405  675]	[405 885 405 675]
511.11	1.0	1306049	1307049	ELCue	VGS	72	3	False	lime	460	[1035 1515  405  675]	[405 885 405 675]
512.518	2.0	1307457	1309483	ShowFixation	VGS	73	3	False	lime	180	[405 885 405 675]	[1035 1515  405  675]
514.545	0.2	1309484	1309719	BlankScreen	VGS	73	3	False	lime	180	[405 885 405 675]	[1035 1515  405  675]
514.78	1.0	1309719	1310719	ELCue	VGS	73	3	False	lime	180	[405 885 405 675]	[1035 1515  405  675]
516.189	2.0	1311128	1313154	ShowFixation	ANTI	74	3	False	red	600	[ 90 570 405 675]	[1350 1830  405  675]
518.215	0.2	1313154	1313390	BlankScreen	ANTI	74	3	False	red	600	[ 90 570 405 675]	[1350 1830  405  675]
518.451	1.0	1313390	1314390	ELCue	ANTI	74	3	False	red	600	[ 90 570 405 675]	[1350 1830  405  675]
519.894	2.0	1314833	1316875	ShowFixation	VGS	75	3	False	lime	180	[405 885 405 675]	[1035 1515  405  675]
521.936	0.2	1316875	1317110	BlankScreen	VGS	75	3	False	lime	180	[405 885 405 675]	[1035 1515  405  675]
522.171	1.0	1317110	1318110	ELCue	VGS	75	3	False	lime	180	[405 885 405 675]	[1035 1515  405  675]
523.574	6.0	1318513	1324545	ShowFixation	ANTI	76	3	False	red	180	[1035 1515  405  675]	[405 885 405 675]
529.606	0.2	1324545	1324784	BlankScreen	ANTI	76	3	False	red	180	[1035 1515  405  675]	[405 885 405 675]
529.845	1.0	1324784	1325784	ELCue	ANTI	76	3	False	red	180	[1035 1515  405  675]	[405 885 405 675]
531.249	6.0	1326188	1332219	ShowFixation	VGS	77	3	False	lime	180	[405 885 405 675]	[1035 1515  405  675]
537.28	0.2	1332219	1332458	BlankScreen	VGS	77	3	False	lime	180	[405 885 405 675]	[1035 1515  405  675]
537.519	1.0	1332458	1333458	ELCue	VGS	77	3	False	lime	180	[405 885 405 675]	[1035 1515  405  675]
538.925	6.0	1333864	1339893	ShowFixation	ANTI	78	3	False	red	40	[1350 1830  405  675]	[ 90 570 405 675]
544.954	0.2	1339893	1340133	BlankScreen	ANTI	78	3	False	red	40	[1350 1830  405  675]	[ 90 570 405 675]
545.194	1.0	1340133	1341133	ELCue	ANTI	78	3	False	red	40	[1350 1830  405  675]	[ 90 570 405 675]
546.6	6.0	1341539	1347568	ShowFixation	ANTI	79	3	False	red	600	[ 90 570 405 675]	[1350 1830  405  675]
552.629	0.2	1347568	1347807	BlankScreen	ANTI	79	3	False	red	600	[ 90 570 405 675]	[1350 1830  405  675]
552.868	1.0	1347807	1348807	ELCue	ANTI	79	3	False	red	600	[ 90 570 405 675]	[1350 1830  405  675]
554.275	2.0	1349214	1351242	ShowFixation	ANTI	80	3	False	red	180	[1035 1515  405  675]	[405 885 405 675]
556.303	0.2	1351242	1351477	BlankScreen	ANTI	80	3	False	red	180	[1035 1515  405  675]	[405 885 405 675]
556.538	1.0	1351477	1352477	ELCue	ANTI	80	3	False	red	180	[1035 1515  405  675]	[405 885 405 675]
601.549	6.0	1396488	1402522	ShowFixation	ANTI	81	4	False	red	600	[ 90 570 405 675]	[1350 1830  405  675]
607.583	0.2	1402522	1402761	BlankScreen	ANTI	81	4	False	red	600	[ 90 570 405 675]	[1350 1830  405  675]
607.822	1.0	1402761	1403761	ELCue	ANTI	81	4	False	red	600	[ 90 570 405 675]	[1350 1830  405  675]
609.233	2.0	1404172	1406213	ShowFixation	VGS	82	4	False	lime	600	[1350 1830  405  675]	[ 90 570 405 675]
611.274	0.2	1406213	1406448	BlankScreen	VGS	82	4	False	lime	600	[1350 1830  405  675]	[ 90 570 405 675]
611.509	1.0	1406448	1407448	ELCue	VGS	82	4	False	lime	600	[1350 1830  405  675]	[ 90 570 405 675]
612.915	6.0	1407854	1413883	ShowFixation	VGS	83	4	False	lime	460	[1035 1515  405  675]	[405 885 405 675]
618.944	0.2	1413883	1414122	BlankScreen	VGS	83	4	False	lime	460	[1035 1515  405  675]	[405 885 405 675]
619.183	1.0	1414122	1415122	ELCue	VGS	83	4	False	lime	460	[1035 1515  405  675]	[405 885 405 675]
620.592	2.0	1415531	1417557	ShowFixation	ANTI	84	4	False	red	600	[ 90 570 405 675]	[1350 1830  405  675]
622.618	0.2	1417557	1417793	BlankScreen	ANTI	84	4	False	red	600	[ 90 570 405 675]	[1350 1830  405  675]
622.854	1.0	1417793	1418793	ELCue	ANTI	84	4	False	red	600	[ 90 570 405 675]	[1350 1830  405  675]
624.246	6.0	1419185	1425211	ShowFixation	ANTI	85	4	False	red	180	[1035 1515  405  675]	[405 885 405 675]
630.272	0.2	1425211	1425450	BlankScreen	ANTI	85	4	False	red	180	[1035 1515  405  675]	[405 885 405 675]
630.511	1.0	1425450	1426450	ELCue	ANTI	85	4	False	red	180	[1035 1515  405  675]	[405 885 405 675]
631.919	6.0	1426858	1432885	ShowFixation	VGS	86	4	False	lime	600	[1350 1830  405  675]	[ 90 570 405 675]
637.946	0.2	1432885	1433124	BlankScreen	VGS	86	4	False	lime	600	[1350 1830  405  675]	[ 90 570 405 675]
638.185	1.0	1433124	1434124	ELCue	VGS	86	4	False	lime	600	[1350 1830  405  675]	[ 90 570 405 675]
639.596	6.0	1434535	1440576	ShowFixation	ANTI	87	4	False	red	460	[405 885 405 675]	[1035 1515  405  675]
645.637	0.2	1440576	1440815	BlankScreen	ANTI	87	4	False	red	460	[405 885 405 675]	[1035 1515  405  675]
645.876	1.0	1440815	1441815	ELCue	ANTI	87	4	False	red	460	[405 885 405 675]	[1035 1515  405  675]
647.285	2.0	1442224	1444250	ShowFixation	VGS	88	4	False	lime	40	[ 90 570 405 675]	[1350 1830  405  675]
649.311	0.2	1444250	1444486	BlankScreen	VGS	88	4	False	lime	40	[ 90 570 405 675]	[1350 1830  405  675]
649.547	1.0	1444486	1445486	ELCue	VGS	88	4	False	lime	40	[ 90 570 405 675]	[1350 1830  405  675]
650.955	2.0	1445894	1447921	ShowFixation	VGS	89	4	False	lime	460	[1035 1515  405  675]	[405 885 405 675]
652.982	0.2	1447921	1448156	BlankScreen	VGS	89	4	False	lime	460	[1035 1515  405  675]	[405 885 405 675]
653.217	1.0	1448156	1449156	ELCue	VGS	89	4	False	lime	460	[1035 1515  405  675]	[405 885 405 675]
654.626	2.0	1449565	1451591	ShowFixation	ANTI	90	4	False	red	40	[1350 1830  405  675]	[ 90 570 405 675]
656.652	0.2	1451591	1451826	BlankScreen	ANTI	90	4	False	red	40	[1350 1830  405  675]	[ 90 570 405 675]
656.887	1.0	1451826	1452826	ELCue	ANTI	90	4	False	red	40	[1350 1830  405  675]	[ 90 570 405 675]
658.293	2.0	1453232	1455261	ShowFixation	ANTI	91	4	False	red	460	[405 885 405 675]	[1035 1515  405  675]
660.322	0.2	1455261	1455496	BlankScreen	ANTI	91	4	False	red	460	[405 885 405 675]	[1035 1515  405  675]
660.557	1.0	1455496	1456496	ELCue	ANTI	91	4	False	red	460	[405 885 405 675]	[1035 1515  405  675]
661.968	2.0	1456907	1458931	ShowFixation	VGS	92	4	False	lime	180	[405 885 405 675]	[1035 1515  405  675]
663.992	0.2	1458931	1459167	BlankScreen	VGS	92	4	False	lime	180	[405 885 405 675]	[1035 1515  405  675]
664.228	1.0	1459167	1460167	ELCue	VGS	92	4	False	lime	180	[405 885 405 675]	[1035 1515  405  675]
665.639	6.0	1460578	1466619	ShowFixation	ANTI	93	4	False	red	40	[1350 1830  405  675]	[ 90 570 405 675]
671.68	0.2	1466619	1466858	BlankScreen	ANTI	93	4	False	red	40	[1350 1830  405  675]	[ 90 570 405 675]
671.919	1.0	1466858	1467858	ELCue	ANTI	93	4	False	red	40	[1350 1830  405  675]	[ 90 570 405 675]
673.326	6.0	1468265	1474294	ShowFixation	ANTI	94	4	False	red	40	[1350 1830  405  675]	[ 90 570 405 675]
679.355	0.2	1474294	1474533	BlankScreen	ANTI	94	4	False	red	40	[1350 1830  405  675]	[ 90 570 405 675]
679.594	1.0	1474533	1475533	ELCue	ANTI	94	4	False	red	40	[1350 1830  405  675]	[ 90 570 405 675]
681.001	2.0	1475940	1477968	ShowFixation	VGS	95	4	False	lime	180	[405 885 405 675]	[1035 1515  405  675]
683.029	0.2	1477968	1478203	BlankScreen	VGS	95	4	False	lime	180	[405 885 405 675]	[1035 1515  405  675]
683.264	1.0	1478203	1479203	ELCue	VGS	95	4	False	lime	180	[405 885 405 675]	[1035 1515  405  675]
684.653	2.0	1479592	1481621	ShowFixation	ANTI	96	4	False	red	180	[1035 1515  405  675]	[405 885 405 675]
686.682	0.2	1481621	1481857	BlankScreen	ANTI	96	4	False	red	180	[1035 1515  405  675]	[405 885 405 675]
686.918	1.0	1481857	1482857	ELCue	ANTI	96	4	False	red	180	[1035 1515  405  675]	[405 885 405 675]
688.318	6.0	1483257	1489292	ShowFixation	ANTI	97	4	False	red	180	[1035 1515  405  675]	[405 885 405 675]
694.353	0.2	1489292	1489531	BlankScreen	ANTI	97	4	False	red	180	[1035 1515  405  675]	[405 885 405 675]
694.592	1.0	1489531	1490531	ELCue	ANTI	97	4	False	red	180	[1035 1515  405  675]	[405 885 405 675]
695.995	6.0	1490934	1496966	ShowFixation	VGS	98	4	False	lime	180	[405 885 405 675]	[1035 1515  405  675]
702.027	0.2	1496966	1497205	BlankScreen	VGS	98	4	False	lime	180	[405 885 405 675]	[1035 1515  405  675]
702.266	1.0	1497205	1498205	ELCue	VGS	98	4	False	lime	180	[405 885 405 675]	[1035 1515  405  675]
703.673	2.0	1498612	1500640	ShowFixation	VGS	99	4	False	lime	40	[ 90 570 405 675]	[1350 1830  405  675]
705.701	0.2	1500640	1500876	BlankScreen	VGS	99	4	False	lime	40	[ 90 570 405 675]	[1350 1830  405  675]
705.937	1.0	1500876	1501876	ELCue	VGS	99	4	False	lime	40	[ 90 570 405 675]	[1350 1830  405  675]
707.343	2.0	1502282	1504311	ShowFixation	ANTI	100	4	False	red	460	[405 885 405 675]	[1035 1515  405  675]
709.372	0.2	1504311	1504546	BlankScreen	ANTI	100	4	False	red	460	[405 885 405 675]	[1035 1515  405  675]
709.607	1.0	1504546	1505546	ELCue	ANTI	100	4	False	red	460	[405 885 405 675]	[1035 1515  405  675]
711.014	6.0	1505953	1511981	ShowFixation	VGS	101	4	False	lime	460	[1035 1515  405  675]	[405 885 405 675]
717.042	0.2	1511981	1512220	BlankScreen	VGS	101	4	False	lime	460	[1035 1515  405  675]	[405 885 405 675]
717.281	1.0	1512220	1513220	ELCue	VGS	101	4	False	lime	460	[1035 1515  405  675]	[405 885 405 675]
718.69	2.0	1513629	1515655	ShowFixation	ANTI	102	4	False	red	40	[1350 1830  405  675]	[ 90 570 405 675]
720.716	0.2	1515655	1515890	BlankScreen	ANTI	102	4	False	red	40	[1350 1830  405  675]	[ 90 570 405 675]
720.951	1.0	1515890	1516890	ELCue	ANTI	102	4	False	red	40	[1350 1830  405  675]	[ 90 570 405 675]
722.355	2.0	1517294	1519325	ShowFixation	ANTI	103	4	False	red	180	[1035 1515  405  675]	[405 885 405 675]
724.386	0.2	1519325	1519561	BlankScreen	ANTI	103	4	False	red	180	[1035 1515  405  675]	[405 885 405 675]
724.622	1.0	1519561	1520561	ELCue	ANTI	103	4	False	red	180	[1035 1515  405  675]	[405 885 405 675]
726.029	6.0	1520968	1526996	ShowFixation	VGS	104	4	False	lime	40	[ 90 570 405 675]	[1350 1830  405  675]
732.057	0.2	1526996	1527235	BlankScreen	VGS	104	4	False	lime	40	[ 90 570 405 675]	[1350 1830  405  675]
732.296	1.0	1527235	1528235	ELCue	VGS	104	4	False	lime	40	[ 90 570 405 675]	[1350 1830  405  675]
733.673	2.0	1528612	1530637	ShowFixation	VGS	105	4	False	lime	600	[1350 1830  405  675]	[ 90 570 405 675]
735.698	0.2	1530637	1530872	BlankScreen	VGS	105	4	False	lime	600	[1350 1830  405  675]	[ 90 570 405 675]
735.933	1.0	1530872	1531872	ELCue	VGS	105	4	False	lime	600	[1350 1830  405  675]	[ 90 570 405 675]
737.309	6.0	1532248	1538273	ShowFixation	VGS	106	4	False	lime	180	[405 885 405 675]	[1035 1515  405  675]
743.334	0.2	1538273	1538513	BlankScreen	VGS	106	4	False	lime	180	[405 885 405 675]	[1035 1515  405  675]
743.574	1.0	1538513	1539513	ELCue	VGS	106	4	False	lime	180	[405 885 405 675]	[1035 1515  405  675]
744.979	2.0	1539918	1541948	ShowFixation	VGS	107	4	False	lime	460	[1035 1515  405  675]	[405 885 405 675]
747.009	0.2	1541948	1542183	BlankScreen	VGS	107	4	False	lime	460	[1035 1515  405  675]	[405 885 405 675]
747.244	1.0	1542183	1543183	ELCue	VGS	107	4	False	lime	460	[1035 1515  405  675]	[405 885 405 675]
748.634	6.0	1543573	1549601	ShowFixation	ANTI	108	4	False	red	600	[ 90 570 405 675]	[1350 1830  405  675]
754.662	0.2	1549601	1549841	BlankScreen	ANTI	108	4	False	red	600	[ 90 570 405 675]	[1350 1830  405  675]
754.902	1.0	1549841	1550841	ELCue	ANTI	108	4	False	red	600	[ 90 570 405 675]	[1350 1830  405  675]
756.294	6.0	1551233	1557259	ShowFixation	VGS	109	4	False	lime	600	[1350 1830  405  675]	[ 90 570 405 675]
762.32	0.2	1557259	1557498	BlankScreen	VGS	109	4	False	lime	600	[1350 1830  405  675]	[ 90 570 405 675]
762.559	1.0	1557498	1558498	ELCue	VGS	109	4	False	lime	600	[1350 1830  405  675]	[ 90 570 405 675]
763.97	6.0	1558909	1564950	ShowFixation	ANTI	110	4	False	red	460	[405 885 405 675]	[1035 1515  405  675]
770.011	0.2	1564950	1565189	BlankScreen	ANTI	110	4	False	red	460	[405 885 405 675]	[1035 1515  405  675]
770.25	1.0	1565189	1566189	ELCue	ANTI	110	4	False	red	460	[405 885 405 675]	[1035 1515  405  675]
771.66	6.0	1566599	1572624	ShowFixation	VGS	111	4	False	lime	40	[ 90 570 405 675]	[1350 1830  405  675]
777.685	0.2	1572624	1572863	BlankScreen	VGS	111	4	False	lime	40	[ 90 570 405 675]	[1350 1830  405  675]
777.924	1.0	1572863	1573863	ELCue	VGS	111	4	False	lime	40	[ 90 570 405 675]	[1350 1830  405  675]
779.335	2.0	1574274	1576315	ShowFixation	ANTI	112	4	False	red	600	[ 90 570 405 675]	[1350 1830  405  675]
781.376	0.2	1576315	1576550	BlankScreen	ANTI	112	4	False	red	600	[ 90 570 405 675]	[1350 1830  405  675]
781.611	1.0	1576550	1577550	ELCue	ANTI	112	4	False	red	600	[ 90 570 405 675]	[1350 1830  405  675]
