onset	duration	startTime	stopTime	eventIdentifier	trial_type	trial_number	block_number	is_practice	fixation_color	cue_side	aoi_correct	aoi_incorrect
0.15	2.0	1091830	1093865	ShowFixation	VGS	1	1	True	lime	180	[405 885 405 675]	[1035 1515  405  675]
2.185	0.2	1093865	1094100	BlankScreen	VGS	1	1	True	lime	180	[405 885 405 675]	[1035 1515  405  675]
2.42	1.0	1094100	1095140	ELCue	VGS	1	1	True	lime	180	[405 885 405 675]	[1035 1515  405  675]
3.875	6.0	1095555	1102169	ShowFixation	ANTI	2	1	True	red	460	[405 885 405 675]	[1035 1515  405  675]
10.489	0.2	1102169	1102408	BlankScreen	ANTI	2	1	True	red	460	[405 885 405 675]	[1035 1515  405  675]
10.728	1.0	1102408	1103448	ELCue	ANTI	2	1	True	red	460	[405 885 405 675]	[1035 1515  405  675]
12.187	2.0	1103867	1106494	ShowFixation	ANTI	3	1	True	red	600	[ 90 570 405 675]	[1350 1830  405  675]
14.814	0.2	1106494	1106729	BlankScreen	ANTI	3	1	True	red	600	[ 90 570 405 675]	[1350 1830  405  675]
15.049	1.0	1106729	1107769	ELCue	ANTI	3	1	True	red	600	[ 90 570 405 675]	[1350 1830  405  675]
16.508	2.0	1108188	1110815	ShowFixation	ANTI	4	1	True	red	460	[405 885 405 675]	[1035 1515  405  675]
19.135	0.2	1110815	1111050	BlankScreen	ANTI	4	1	True	red	460	[405 885 405 675]	[1035 1515  405  675]
19.37	1.0	1111050	1112090	ELCue	ANTI	4	1	True	red	460	[405 885 405 675]	[1035 1515  405  675]
20.824	2.0	1112504	1115136	ShowFixation	ANTI	5	1	True	red	180	[1035 1515  405  675]	[405 885 405 675]
23.456	0.2	1115136	1115371	BlankScreen	ANTI	5	1	True	red	180	[1035 1515  405  675]	[405 885 405 675]
23.691	1.0	1115371	1116411	ELCue	ANTI	5	1	True	red	180	[1035 1515  405  675]	[405 885 405 675]
25.153	2.0	1116833	1119456	ShowFixation	ANTI	6	1	True	red	40	[1350 1830  405  675]	[ 90 570 405 675]
27.776	0.2	1119456	1119692	BlankScreen	ANTI	6	1	True	red	40	[1350 1830  405  675]	[ 90 570 405 675]
28.012	1.0	1119692	1120732	ELCue	ANTI	6	1	True	red	40	[1350 1830  405  675]	[ 90 570 405 675]
29.471	6.0	1121151	1127777	ShowFixation	ANTI	7	1	True	red	40	[1350 1830  405  675]	[ 90 570 405 675]
36.097	0.2	1127777	1128017	BlankScreen	ANTI	7	1	True	red	40	[1350 1830  405  675]	[ 90 570 405 675]
36.337	1.0	1128017	1129057	ELCue	ANTI	7	1	True	red	40	[1350 1830  405  675]	[ 90 570 405 675]
37.797	2.0	1129477	1132086	ShowFixation	VGS	8	1	True	lime	460	[1035 1515  405  675]	[405 885 405 675]
40.406	0.2	1132086	1132304	BlankScreen	VGS	8	1	True	lime	460	[1035 1515  405  675]	[405 885 405 675]
40.624	1.0	1132304	1133328	ELCue	VGS	8	1	True	lime	460	[1035 1515  405  675]	[405 885 405 675]
42.066	2.0	1133746	1136373	ShowFixation	VGS	9	1	True	lime	40	[ 90 570 405 675]	[1350 1830  405  675]
44.693	0.2	1136373	1136608	BlankScreen	VGS	9	1	True	lime	40	[ 90 570 405 675]	[1350 1830  405  675]
44.928	1.0	1136608	1137649	ELCue	VGS	9	1	True	lime	40	[ 90 570 405 675]	[1350 1830  405  675]
46.386	6.0	1138066	1144694	ShowFixation	VGS	10	1	True	lime	460	[1035 1515  405  675]	[405 885 405 675]
53.014	0.2	1144694	1144933	BlankScreen	VGS	10	1	True	lime	460	[1035 1515  405  675]	[405 885 405 675]
53.253	1.0	1144933	1145974	ELCue	VGS	10	1	True	lime	460	[1035 1515  405  675]	[405 885 405 675]
54.708	6.0	1146388	1153019	ShowFixation	VGS	11	1	True	lime	40	[ 90 570 405 675]	[1350 1830  405  675]
61.339	0.2	1153019	1153258	BlankScreen	VGS	11	1	True	lime	40	[ 90 570 405 675]	[1350 1830  405  675]
61.578	1.0	1153258	1154299	ELCue	VGS	11	1	True	lime	40	[ 90 570 405 675]	[1350 1830  405  675]
63.035	2.0	1154715	1157344	ShowFixation	VGS	12	1	True	lime	600	[1350 1830  405  675]	[ 90 570 405 675]
65.664	0.2	1157344	1157579	BlankScreen	VGS	12	1	True	lime	600	[1350 1830  405  675]	[ 90 570 405 675]
65.899	1.0	1157579	1158620	ELCue	VGS	12	1	True	lime	600	[1350 1830  405  675]	[ 90 570 405 675]
67.359	6.0	1159039	1165665	ShowFixation	VGS	13	1	True	lime	180	[405 885 405 675]	[1035 1515  405  675]
73.985	0.2	1165665	1165904	BlankScreen	VGS	13	1	True	lime	180	[405 885 405 675]	[1035 1515  405  675]
74.224	1.0	1165904	1166944	ELCue	VGS	13	1	True	lime	180	[405 885 405 675]	[1035 1515  405  675]
75.681	6.0	1167361	1173973	ShowFixation	ANTI	14	1	True	red	600	[ 90 570 405 675]	[1350 1830  405  675]
82.293	0.2	1173973	1174212	BlankScreen	ANTI	14	1	True	red	600	[ 90 570 405 675]	[1350 1830  405  675]
82.532	1.0	1174212	1175252	ELCue	ANTI	14	1	True	red	600	[ 90 570 405 675]	[1350 1830  405  675]
83.99	6.0	1175670	1182281	ShowFixation	ANTI	15	1	True	red	180	[1035 1515  405  675]	[405 885 405 675]
90.601	0.2	1182281	1182520	BlankScreen	ANTI	15	1	True	red	180	[1035 1515  405  675]	[405 885 405 675]
90.84	1.0	1182520	1183561	ELCue	ANTI	15	1	True	red	180	[1035 1515  405  675]	[405 885 405 675]
92.298	6.0	1183978	1190589	ShowFixation	VGS	16	1	True	lime	600	[1350 1830  405  675]	[ 90 570 405 675]
98.909	0.2	1190589	1190829	BlankScreen	VGS	16	1	True	lime	600	[1350 1830  405  675]	[ 90 570 405 675]
99.149	1.0	1190829	1191869	ELCue	VGS	16	1	True	lime	600	[1350 1830  405  675]	[ 90 570 405 675]
109.12	6.0	1200800	1206839	ShowFixation	VGS	17	2	False	lime	600	[1350 1830  405  675]	[ 90 570 405 675]
115.16	0.2	1206840	1207079	BlankScreen	VGS	17	2	False	lime	600	[1350 1830  405  675]	[ 90 570 405 675]
115.399	1.0	1207079	1208079	ELCue	VGS	17	2	False	lime	600	[1350 1830  405  675]	[ 90 570 405 675]
116.821	2.0	1208501	1210531	ShowFixation	VGS	18	2	False	lime	40	[ 90 570 405 675]	[1350 1830  405  675]
118.851	0.2	1210531	1210766	BlankScreen	VGS	18	2	False	lime	40	[ 90 570 405 675]	[1350 1830  405  675]
119.086	1.0	1210766	1211766	ELCue	VGS	18	2	False	lime	40	[ 90 570 405 675]	[1350 1830  405  675]
120.507	6.0	1212187	1218218	ShowFixation	VGS	19	2	False	lime	600	[1350 1830  405  675]	[ 90 570 405 675]
126.538	0.2	1218218	1218457	BlankScreen	VGS	19	2	False	lime	600	[1350 1830  405  675]	[ 90 570 405 675]
126.777	1.0	1218457	1219457	ELCue	VGS	19	2	False	lime	600	[1350 1830  405  675]	[ 90 570 405 675]
128.2	6.0	1219880	1225908	ShowFixation	VGS	20	2	False	lime	40	[ 90 570 405 675]	[1350 1830  405  675]
134.228	0.2	1225908	1226148	BlankScreen	VGS	20	2	False	lime	40	[ 90 570 405 675]	[1350 1830  405  675]
134.468	1.0	1226148	1227148	ELCue	VGS	20	2	False	lime	40	[ 90 570 405 675]	[1350 1830  405  675]
135.89	6.0	1227570	1233599	ShowFixation	VGS	21	2	False	lime	180	[405 885 405 675]	[1035 1515  405  675]
141.919	0.2	1233599	1233839	BlankScreen	VGS	21	2	False	lime	180	[405 885 405 675]	[1035 1515  405  675]
142.159	1.0	1233839	1234839	ELCue	VGS	21	2	False	lime	180	[405 885 405 675]	[1035 1515  405  675]
143.581	2.0	1235261	1237290	ShowFixation	ANTI	22	2	False	red	180	[1035 1515  405  675]	[405 885 405 675]
145.61	0.2	1237290	1237526	BlankScreen	ANTI	22	2	False	red	180	[1035 1515  405  675]	[405 885 405 675]
145.846	1.0	1237526	1238526	ELCue	ANTI	22	2	False	red	180	[1035 1515  405  675]	[405 885 405 675]
147.267	2.0	1238947	1240977	ShowFixation	VGS	23	2	False	lime	180	[405 885 405 675]	[1035 1515  405  675]
149.297	0.2	1240977	1241213	BlankScreen	VGS	23	2	False	lime	180	[405 885 405 675]	[1035 1515  405  675]
149.533	1.0	1241213	1242213	ELCue	VGS	23	2	False	lime	180	[405 885 405 675]	[1035 1515  405  675]
150.954	2.0	1242634	1244664	ShowFixation	VGS	24	2	False	lime	460	[1035 1515  405  675]	[405 885 405 675]
152.984	0.2	1244664	1244900	BlankScreen	VGS	24	2	False	lime	460	[1035 1515  405  675]	[405 885 405 675]
153.22	1.0	1244900	1245900	ELCue	VGS	24	2	False	lime	460	[1035 1515  405  675]	[405 885 405 675]
154.64	2.0	1246320	1248351	ShowFixation	ANTI	25	2	False	red	460	[405 885 405 675]	[1035 1515  405  675]
156.671	0.2	1248351	1248587	BlankScreen	ANTI	25	2	False	red	460	[405 885 405 675]	[1035 1515  405  675]
156.907	1.0	1248587	1249587	ELCue	ANTI	25	2	False	red	460	[405 885 405 675]	[1035 1515  405  675]
158.328	6.0	1250008	1256038	ShowFixation	ANTI	26	2	False	red	600	[ 90 570 405 675]	[1350 1830  405  675]
164.358	0.2	1256038	1256277	BlankScreen	ANTI	26	2	False	red	600	[ 90 570 405 675]	[1350 1830  405  675]
164.597	1.0	1256277	1257277	ELCue	ANTI	26	2	False	red	600	[ 90 570 405 675]	[1350 1830  405  675]
166.02	2.0	1257700	1259729	ShowFixation	VGS	27	2	False	lime	460	[1035 1515  405  675]	[405 885 405 675]
168.049	0.2	1259729	1259964	BlankScreen	VGS	27	2	False	lime	460	[1035 1515  405  675]	[405 885 405 675]
168.284	1.0	1259964	1260964	ELCue	VGS	27	2	False	lime	460	[1035 1515  405  675]	[405 885 405 675]
169.7	6.0	1261380	1267416	ShowFixation	ANTI	28	2	False	red	40	[1350 1830  405  675]	[ 90 570 405 675]
175.736	0.2	1267416	1267655	BlankScreen	ANTI	28	2	False	red	40	[1350 1830  405  675]	[ 90 570 405 675]
175.975	1.0	1267655	1268655	ELCue	ANTI	28	2	False	red	40	[1350 1830  405  675]	[ 90 570 405 675]
177.398	6.0	1269078	1275107	ShowFixation	VGS	29	2	False	lime	460	[1035 1515  405  675]	[405 885 405 675]
183.427	0.2	1275107	1275346	BlankScreen	VGS	29	2	False	lime	460	[1035 1515  405  675]	[405 885 405 675]
183.666	1.0	1275346	1276346	ELCue	VGS	29	2	False	lime	460	[1035 1515  405  675]	[405 885 405 675]
185.088	2.0	1276768	1278798	ShowFixation	ANTI	30	2	False	red	460	[405 885 405 675]	[1035 1515  405  675]
187.118	0.2	1278798	1279033	BlankScreen	ANTI	30	2	False	red	460	[405 885 405 675]	[1035 1515  405  675]
187.353	1.0	1279033	1280033	ELCue	ANTI	30	2	False	red	460	[405 885 405 675]	[1035 1515  405  675]
188.778	2.0	1280458	1282485	ShowFixation	VGS	31	2	False	lime	600	[1350 1830  405  675]	[ 90 570 405 675]
190.805	0.2	1282485	1282720	BlankScreen	VGS	31	2	False	lime	600	[1350 1830  405  675]	[ 90 570 405 675]
191.04	1.0	1282720	1283720	ELCue	VGS	31	2	False	lime	600	[1350 1830  405  675]	[ 90 570 405 675]
192.46	2.0	1284140	1286172	ShowFixation	ANTI	32	2	False	red	600	[ 90 570 405 675]	[1350 1830  405  675]
194.492	0.2	1286172	1286407	BlankScreen	ANTI	32	2	False	red	600	[ 90 570 405 675]	[1350 1830  405  675]
194.727	1.0	1286407	1287407	ELCue	ANTI	32	2	False	red	600	[ 90 570 405 675]	[1350 1830  405  675]
196.148	6.0	1287828	1293859	ShowFixation	ANTI	33	2	False	red	180	[1035 1515  405  675]	[405 885 405 675]
202.179	0.2	1293859	1294098	BlankScreen	ANTI	33	2	False	red	180	[1035 1515  405  675]	[405 885 405 675]
202.418	1.0	1294098	1295098	ELCue	ANTI	33	2	False	red	180	[1035 1515  405  675]	[405 885 405 675]
203.84	6.0	1295520	1301550	ShowFixation	VGS	34	2	False	lime	180	[405 885 405 675]	[1035 1515  405  675]
209.87	0.2	1301550	1301789	BlankScreen	VGS	34	2	False	lime	180	[405 885 405 675]	[1035 1515  405  675]
210.109	1.0	1301789	1302789	ELCue	VGS	34	2	False	lime	180	[405 885 405 675]	[1035 1515  405  675]
211.532	2.0	1303212	1305241	ShowFixation	VGS	35	2	False	lime	180	[405 885 405 675]	[1035 1515  405  675]
213.561	0.2	1305241	1305476	BlankScreen	VGS	35	2	False	lime	180	[405 885 405 675]	[1035 1515  405  675]
213.796	1.0	1305476	1306476	ELCue	VGS	35	2	False	lime	180	[405 885 405 675]	[1035 1515  405  675]
215.217	2.0	1306897	1308928	ShowFixation	ANTI	36	2	False	red	40	[1350 1830  405  675]	[ 90 570 405 675]
217.248	0.2	1308928	1309163	BlankScreen	ANTI	36	2	False	red	40	[1350 1830  405  675]	[ 90 570 405 675]
217.483	1.0	1309163	1310163	ELCue	ANTI	36	2	False	red	40	[1350 1830  405  675]	[ 90 570 405 675]
218.901	6.0	1310581	1316615	ShowFixation	ANTI	37	2	False	red	40	[1350 1830  405  675]	[ 90 570 405 675]
224.935	0.2	1316615	1316854	BlankScreen	ANTI	37	2	False	red	40	[1350 1830  405  675]	[ 90 570 405 675]
225.174	1.0	1316854	1317854	ELCue	ANTI	37	2	False	red	40	[1350 1830  405  675]	[ 90 570 405 675]
226.596	2.0	1318276	1320305	ShowFixation	VGS	38	2	False	lime	40	[ 90 570 405 675]	[1350 1830  405  675]
228.625	0.2	1320305	1320541	BlankScreen	VGS	38	2	False	lime	40	[ 90 570 405 675]	[1350 1830  405  675]
228.861	1.0	1320541	1321541	ELCue	VGS	38	2	False	lime	40	[ 90 570 405 675]	[1350 1830  405  675]
230.281	6.0	1321961	1327993	ShowFixation	ANTI	39	2	False	red	600	[ 90 570 405 675]	[1350 1830  405  675]
236.313	0.2	1327993	1328232	BlankScreen	ANTI	39	2	False	red	600	[ 90 570 405 675]	[1350 1830  405  675]
236.552	1.0	1328232	1329232	ELCue	ANTI	39	2	False	red	600	[ 90 570 405 675]	[1350 1830  405  675]
237.974	6.0	1329654	1335683	ShowFixation	ANTI	40	2	False	red	180	[1035 1515  405  675]	[405 885 405 675]
244.003	0.2	1335683	1335923	BlankScreen	ANTI	40	2	False	red	180	[1035 1515  405  675]	[405 885 405 675]
244.244	1.0	1335924	1336924	ELCue	ANTI	40	2	False	red	180	[1035 1515  405  675]	[405 885 405 675]
245.666	6.0	1337346	1343374	ShowFixation	VGS	41	2	False	lime	460	[1035 1515  405  675]	[405 885 405 675]
251.695	0.2	1343375	1343615	BlankScreen	VGS	41	2	False	lime	460	[1035 1515  405  675]	[405 885 405 675]
251.935	1.0	1343615	1344615	ELCue	VGS	41	2	False	lime	460	[1035 1515  405  675]	[405 885 405 675]
253.354	2.0	1345034	1347065	ShowFixation	ANTI	42	2	False	red	600	[ 90 570 405 675]	[1350 1830  405  675]
255.386	0.2	1347066	1347301	BlankScreen	ANTI	42	2	False	red	600	[ 90 570 405 675]	[1350 1830  405  675]
255.622	1.0	1347302	1348302	ELCue	ANTI	42	2	False	red	600	[ 90 570 405 675]	[1350 1830  405  675]
257.04	2.0	1348720	1350753	ShowFixation	ANTI	43	2	False	red	40	[1350 1830  405  675]	[ 90 570 405 675]
259.073	0.2	1350753	1350988	BlankScreen	ANTI	43	2	False	red	40	[1350 1830  405  675]	[ 90 570 405 675]
259.308	1.0	1350988	1351988	ELCue	ANTI	43	2	False	red	40	[1350 1830  405  675]	[ 90 570 405 675]
260.727	2.0	1352407	1354440	ShowFixation	VGS	44	2	False	lime	600	[1350 1830  405  675]	[ 90 570 405 675]
262.76	0.2	1354440	1354675	BlankScreen	VGS	44	2	False	lime	600	[1350 1830  405  675]	[ 90 570 405 675]
262.995	1.0	1354675	1355675	ELCue	VGS	44	2	False	lime	600	[1350 1830  405  675]	[ 90 570 405 675]
264.414	6.0	1356094	1362127	ShowFixation	ANTI	45	2	False	red	460	[405 885 405 675]	[1035 1515  405  675]
270.447	0.2	1362127	1362366	BlankScreen	ANTI	45	2	False	red	460	[405 885 405 675]	[1035 1515  405  675]
270.686	1.0	1362366	1363366	ELCue	ANTI	45	2	False	red	460	[405 885 405 675]	[1035 1515  405  675]
272.101	6.0	1363781	1369818	ShowFixation	ANTI	46	2	False	red	460	[405 885 405 675]	[1035 1515  405  675]
278.138	0.2	1369818	1370057	BlankScreen	ANTI	46	2	False	red	460	[405 885 405 675]	[1035 1515  405  675]
278.377	1.0	1370057	1371057	ELCue	ANTI	46	2	False	red	460	[405 885 405 675]	[1035 1515  405  675]
279.798	2.0	1371478	1373509	ShowFixation	ANTI	47	2	False	red	180	[1035 1515  405  675]	[405 885 405 675]
281.829	0.2	1373509	1373744	BlankScreen	ANTI	47	2	False	red	180	[1035 1515  405  675]	[405 885 405 675]
282.064	1.0	1373744	1374744	ELCue	ANTI	47	2	False	red	180	[1035 1515  405  675]	[405 885 405 675]
283.486	6.0	1375166	1381196	ShowFixation	VGS	48	2	False	lime	40	[ 90 570 405 675]	[1350 1830  405  675]
289.516	0.2	1381196	1381435	BlankScreen	VGS	48	2	False	lime	40	[ 90 570 405 675]	[1350 1830  405  675]
289.755	1.0	1381435	1382435	ELCue	VGS	48	2	False	lime	40	[ 90 570 405 675]	[1350 1830  405  675]
311.182	2.0	1402862	1404890	ShowFixation	ANTI	49	3	False	red	40	[1350 1830  405  675]	[ 90 570 405 675]
313.21	0.2	1404890	1405125	BlankScreen	ANTI	49	3	False	red	40	[1350 1830  405  675]	[ 90 570 405 675]
313.445	1.0	1405125	1406125	ELCue	ANTI	49	3	False	red	40	[1350 1830  405  675]	[ 90 570 405 675]
314.868	2.0	1406548	1408577	ShowFixation	ANTI	50	3	False	red	600	[ 90 570 405 675]	[1350 1830  405  675]
316.897	0.2	1408577	1408812	BlankScreen	ANTI	50	3	False	red	600	[ 90 570 405 675]	[1350 1830  405  675]
317.132	1.0	1408812	1409812	ELCue	ANTI	50	3	False	red	600	[ 90 570 405 675]	[1350 1830  405  675]
318.556	6.0	1410236	1416264	ShowFixation	ANTI	51	3	False	red	40	[1350 1830  405  675]	[ 90 570 405 675]
324.584	0.2	1416264	1416503	BlankScreen	ANTI	51	3	False	red	40	[1350 1830  405  675]	[ 90 570 405 675]
324.823	1.0	1416503	1417503	ELCue	ANTI	51	3	False	red	40	[1350 1830  405  675]	[ 90 570 405 675]
326.246	2.0	1417926	1419955	ShowFixation	ANTI	52	3	False	red	180	[1035 1515  405  675]	[405 885 405 675]
328.275	0.2	1419955	1420190	BlankScreen	ANTI	52	3	False	red	180	[1035 1515  405  675]	[405 885 405 675]
328.51	1.0	1420190	1421190	ELCue	ANTI	52	3	False	red	180	[1035 1515  405  675]	[405 885 405 675]
329.932	6.0	1421612	1427642	ShowFixation	ANTI	53	3	False	red	40	[1350 1830  405  675]	[ 90 570 405 675]
335.962	0.2	1427642	1427881	BlankScreen	ANTI	53	3	False	red	40	[1350 1830  405  675]	[ 90 570 405 675]
336.201	1.0	1427881	1428881	ELCue	ANTI	53	3	False	red	40	[1350 1830  405  675]	[ 90 570 405 675]
337.627	2.0	1429307	1431333	ShowFixation	VGS	54	3	False	lime	180	[405 885 405 675]	[1035 1515  405  675]
339.653	0.2	1431333	1431568	BlankScreen	VGS	54	3	False	lime	180	[405 885 405 675]	[1035 1515  405  675]
339.888	1.0	1431568	1432568	ELCue	VGS	54	3	False	lime	180	[405 885 405 675]	[1035 1515  405  675]
341.305	6.0	1432985	1439020	ShowFixation	ANTI	55	3	False	red	600	[ 90 570 405 675]	[1350 1830  405  675]
347.34	0.2	1439020	1439259	BlankScreen	ANTI	55	3	False	red	600	[ 90 570 405 675]	[1350 1830  405  675]
347.579	1.0	1439259	1440259	ELCue	ANTI	55	3	False	red	600	[ 90 570 405 675]	[1350 1830  405  675]
349.001	6.0	1440681	1446711	ShowFixation	VGS	56	3	False	lime	460	[1035 1515  405  675]	[405 885 405 675]
355.031	0.2	1446711	1446950	BlankScreen	VGS	56	3	False	lime	460	[1035 1515  405  675]	[405 885 405 675]
355.27	1.0	1446950	1447950	ELCue	VGS	56	3	False	lime	460	[1035 1515  405  675]	[405 885 405 675]
356.691	2.0	1448371	1450401	ShowFixation	ANTI	57	3	False	red	180	[1035 1515  405  675]	[405 885 405 675]
358.721	0.2	1450401	1450637	BlankScreen	ANTI	57	3	False	red	180	[1035 1515  405  675]	[405 885 405 675]
358.957	1.0	1450637	1451637	ELCue	ANTI	57	3	False	red	180	[1035 1515  405  675]	[405 885 405 675]
360.378	6.0	1452058	1458088	ShowFixation	VGS	58	3	False	lime	600	[1350 1830  405  675]	[ 90 570 405 675]
366.408	0.2	1458088	1458328	BlankScreen	VGS	58	3	False	lime	600	[1350 1830  405  675]	[ 90 570 405 675]
366.648	1.0	1458328	1459328	ELCue	VGS	58	3	False	lime	600	[1350 1830  405  675]	[ 90 570 405 675]
368.071	6.0	1459751	1465779	ShowFixation	VGS	59	3	False	lime	460	[1035 1515  405  675]	[405 885 405 675]
374.099	0.2	1465779	1466019	BlankScreen	VGS	59	3	False	lime	460	[1035 1515  405  675]	[405 885 405 675]
374.339	1.0	1466019	1467019	ELCue	VGS	59	3	False	lime	460	[1035 1515  405  675]	[405 885 405 675]
375.759	2.0	1467439	1469470	ShowFixation	ANTI	60	3	False	red	40	[1350 1830  405  675]	[ 90 570 405 675]
377.79	0.2	1469470	1469706	BlankScreen	ANTI	60	3	False	red	40	[1350 1830  405  675]	[ 90 570 405 675]
378.026	1.0	1469706	1470706	ELCue	ANTI	60	3	False	red	40	[1350 1830  405  675]	[ 90 570 405 675]
379.45	2.0	1471130	1473157	ShowFixation	VGS	61	3	False	lime	40	[ 90 570 405 675]	[1350 1830  405  675]
381.477	0.2	1473157	1473393	BlankScreen	VGS	61	3	False	lime	40	[ 90 570 405 675]	[1350 1830  405  675]
381.713	1.0	1473393	1474393	ELCue	VGS	61	3	False	lime	40	[ 90 570 405 675]	[1350 1830  405  675]
383.132	6.0	1474812	1480844	ShowFixation	ANTI	62	3	False	red	180	[1035 1515  405  675]	[405 885 405 675]
389.164	0.2	1480844	1481083	BlankScreen	ANTI	62	3	False	red	180	[1035 1515  405  675]	[405 885 405 675]
389.403	1.0	1481083	1482083	ELCue	ANTI	62	3	False	red	180	[1035 1515  405  675]	[405 885 405 675]
390.825	2.0	1482505	1484535	ShowFixation	VGS	63	3	False	lime	460	[1035 1515  405  675]	[405 885 405 675]
392.855	0.2	1484535	1484770	BlankScreen	VGS	63	3	False	lime	460	[1035 1515  405  675]	[405 885 405 675]
393.091	1.0	1484771	1485771	ELCue	VGS	63	3	False	lime	460	[1035 1515  405  675]	[405 885 405 675]
394.505	2.0	1486185	1488223	ShowFixation	VGS	64	3	False	lime	460	[1035 1515  405  675]	[405 885 405 675]
396.543	0.2	1488223	1488457	BlankScreen	VGS	64	3	False	lime	460	[1035 1515  405  675]	[405 885 405 675]
396.778	1.0	1488458	1489458	ELCue	VGS	64	3	False	lime	460	[1035 1515  405  675]	[405 885 405 675]
398.199	6.0	1489879	1495909	ShowFixation	VGS	65	3	False	lime	600	[1350 1830  405  675]	[ 90 570 405 675]
404.23	0.2	1495910	1496149	BlankScreen	VGS	65	3	False	lime	600	[1350 1830  405  675]	[ 90 570 405 675]
404.469	1.0	1496149	1497149	ELCue	VGS	65	3	False	lime	600	[1350 1830  405  675]	[ 90 570 405 675]
405.883	2.0	1497563	1499601	ShowFixation	ANTI	66	3	False	red	460	[405 885 405 675]	[1035 1515  405  675]
407.921	0.2	1499601	1499836	BlankScreen	ANTI	66	3	False	red	460	[405 885 405 675]	[1035 1515  405  675]
408.156	1.0	1499836	1500836	ELCue	ANTI	66	3	False	red	460	[405 885 405 675]	[1035 1515  405  675]
409.58	6.0	1501260	1507288	ShowFixation	VGS	67	3	False	lime	180	[405 885 405 675]	[1035 1515  405  675]
415.608	0.2	1507288	1507527	BlankScreen	VGS	67	3	False	lime	180	[405 885 405 675]	[1035 1515  405  675]
415.847	1.0	1507527	1508527	ELCue	VGS	67	3	False	lime	180	[405 885 405 675]	[1035 1515  405  675]
417.271	2.0	1508951	1510979	ShowFixation	VGS	68	3	False	lime	600	[1350 1830  405  675]	[ 90 570 405 675]
419.299	0.2	1510979	1511214	BlankScreen	VGS	68	3	False	lime	600	[1350 1830  405  675]	[ 90 570 405 675]
419.534	1.0	1511214	1512214	ELCue	VGS	68	3	False	lime	600	[1350 1830  405  675]	[ 90 570 405 675]
420.953	6.0	1512633	1518666	ShowFixation	ANTI	69	3	False	red	460	[405 885 405 675]	[1035 1515  405  675]
426.986	0.2	1518666	1518905	BlankScreen	ANTI	69	3	False	red	460	[405 885 405 675]	[1035 1515  405  675]
427.225	1.0	1518905	1519905	ELCue	ANTI	69	3	False	red	460	[405 885 405 675]	[1035 1515  405  675]
428.65	2.0	1520330	1522357	ShowFixation	VGS	70	3	False	lime	180	[405 885 405 675]	[1035 1515  405  675]
430.677	0.2	1522357	1522592	BlankScreen	VGS	70	3	False	lime	180	[405 885 405 675]	[1035 1515  405  675]
430.912	1.0	1522592	1523592	ELCue	VGS	70	3	False	lime	180	[405 885 405 675]	[1035 1515  405  675]
432.335	6.0	1524015	1530044	ShowFixation	ANTI	71	3	False	red	460	[405 885 405 675]	[1035 1515  405  675]
438.364	0.2	1530044	1530283	BlankScreen	ANTI	71	3	False	red	460	[405 885 405 675]	[1035 1515  405  675]
438.603	1.0	1530283	1531283	ELCue	ANTI	71	3	False	red	460	[405 885 405 675]	[1035 1515  405  675]
440.026	6.0	1531706	1537735	ShowFixation	ANTI	72	3	False	red	180	[1035 1515  405  675]	[405 885 405 675]
446.055	0.2	1537735	1537974	BlankScreen	ANTI	72	3	False	red	180	[1035 1515  405  675]	[405 885 405 675]
446.294	1.0	1537974	1538974	ELCue	ANTI	72	3	False	red	180	[1035 1515  405  675]	[405 885 405 675]
447.718	6.0	1539398	1545426	ShowFixation	ANTI	73	3	False	red	600	[ 90 570 405 675]	[1350 1830  405  675]
453.746	0.2	1545426	1545665	BlankScreen	ANTI	73	3	False	red	600	[ 90 570 405 675]	[1350 1830  405  675]
453.985	1.0	1545665	1546665	ELCue	ANTI	73	3	False	red	600	[ 90 570 405 675]	[1350 1830  405  675]
455.405	6.0	1547085	1553116	ShowFixation	VGS	74	3	False	lime	180	[405 885 405 675]	[1035 1515  405  675]
461.436	0.2	1553116	1553356	BlankScreen	VGS	74	3	False	lime	180	[405 885 405 675]	[1035 1515  405  675]
461.676	1.0	1553356	1554356	ELCue	VGS	74	3	False	lime	180	[405 885 405 675]	[1035 1515  405  675]
463.097	2.0	1554777	1556807	ShowFixation	ANTI	75	3	False	red	600	[ 90 570 405 675]	[1350 1830  405  675]
465.127	0.2	1556807	1557043	BlankScreen	ANTI	75	3	False	red	600	[ 90 570 405 675]	[1350 1830  405  675]
465.363	1.0	1557043	1558043	ELCue	ANTI	75	3	False	red	600	[ 90 570 405 675]	[1350 1830  405  675]
466.784	2.0	1558464	1560494	ShowFixation	VGS	76	3	False	lime	600	[1350 1830  405  675]	[ 90 570 405 675]
468.814	0.2	1560494	1560730	BlankScreen	VGS	76	3	False	lime	600	[1350 1830  405  675]	[ 90 570 405 675]
469.05	1.0	1560730	1561730	ELCue	VGS	76	3	False	lime	600	[1350 1830  405  675]	[ 90 570 405 675]
470.471	2.0	1562151	1564181	ShowFixation	ANTI	77	3	False	red	460	[405 885 405 675]	[1035 1515  405  675]
472.501	0.2	1564181	1564417	BlankScreen	ANTI	77	3	False	red	460	[405 885 405 675]	[1035 1515  405  675]
472.737	1.0	1564417	1565417	ELCue	ANTI	77	3	False	red	460	[405 885 405 675]	[1035 1515  405  675]
474.159	2.0	1565839	1567868	ShowFixation	VGS	78	3	False	lime	40	[ 90 570 405 675]	[1350 1830  405  675]
476.188	0.2	1567868	1568104	BlankScreen	VGS	78	3	False	lime	40	[ 90 570 405 675]	[1350 1830  405  675]
476.424	1.0	1568104	1569104	ELCue	VGS	78	3	False	lime	40	[ 90 570 405 675]	[1350 1830  405  675]
477.842	6.0	1569522	1575555	ShowFixation	VGS	79	3	False	lime	40	[ 90 570 405 675]	[1350 1830  405  675]
483.875	0.2	1575555	1575795	BlankScreen	VGS	79	3	False	lime	40	[ 90 570 405 675]	[1350 1830  405  675]
484.115	1.0	1575795	1576795	ELCue	VGS	79	3	False	lime	40	[ 90 570 405 675]	[1350 1830  405  675]
485.533	6.0	1577213	1583246	ShowFixation	VGS	80	3	False	lime	40	[ 90 570 405 675]	[1350 1830  405  675]
491.566	0.2	1583246	1583485	BlankScreen	VGS	80	3	False	lime	40	[ 90 570 405 675]	[1350 1830  405  675]
491.805	1.0	1583485	1584485	ELCue	VGS	80	3	False	lime	40	[ 90 570 405 675]	[1350 1830  405  675]
508.97	2.0	1600650	1602686	ShowFixation	VGS	81	4	False	lime	460	[1035 1515  405  675]	[405 885 405 675]
511.006	0.2	1602686	1602921	BlankScreen	VGS	81	4	False	lime	460	[1035 1515  405  675]	[405 885 405 675]
511.241	1.0	1602921	1603921	ELCue	VGS	81	4	False	lime	460	[1035 1515  405  675]	[405 885 405 675]
512.812	6.0	1604492	1610523	ShowFixation	ANTI	82	4	False	red	460	[405 885 405 675]	[1035 1515  405  675]
518.843	0.2	1610523	1610762	BlankScreen	ANTI	82	4	False	red	460	[405 885 405 675]	[1035 1515  405  675]
519.082	1.0	1610762	1611762	ELCue	ANTI	82	4	False	red	460	[405 885 405 675]	[1035 1515  405  675]
520.503	6.0	1612183	1618214	ShowFixation	VGS	83	4	False	lime	40	[ 90 570 405 675]	[1350 1830  405  675]
526.535	0.2	1618215	1618453	BlankScreen	VGS	83	4	False	lime	40	[ 90 570 405 675]	[1350 1830  405  675]
526.773	1.0	1618453	1619453	ELCue	VGS	83	4	False	lime	40	[ 90 570 405 675]	[1350 1830  405  675]
528.194	6.0	1619874	1625905	ShowFixation	ANTI	84	4	False	red	460	[405 885 405 675]	[1035 1515  405  675]
534.225	0.2	1625905	1626145	BlankScreen	ANTI	84	4	False	red	460	[405 885 405 675]	[1035 1515  405  675]
534.465	1.0	1626145	1627145	ELCue	ANTI	84	4	False	red	460	[405 885 405 675]	[1035 1515  405  675]
535.885	2.0	1627565	1629597	ShowFixation	ANTI	85	4	False	red	180	[1035 1515  405  675]	[405 885 405 675]
537.917	0.2	1629597	1629832	BlankScreen	ANTI	85	4	False	red	180	[1035 1515  405  675]	[405 885 405 675]
538.152	1.0	1629832	1630832	ELCue	ANTI	85	4	False	red	180	[1035 1515  405  675]	[405 885 405 675]
539.577	6.0	1631257	1637284	ShowFixation	ANTI	86	4	False	red	600	[ 90 570 405 675]	[1350 1830  405  675]
545.604	0.2	1637284	1637523	BlankScreen	ANTI	86	4	False	red	600	[ 90 570 405 675]	[1350 1830  405  675]
545.843	1.0	1637523	1638523	ELCue	ANTI	86	4	False	red	600	[ 90 570 405 675]	[1350 1830  405  675]
547.262	2.0	1638942	1640975	ShowFixation	VGS	87	4	False	lime	600	[1350 1830  405  675]	[ 90 570 405 675]
549.295	0.2	1640975	1641210	BlankScreen	VGS	87	4	False	lime	600	[1350 1830  405  675]	[ 90 570 405 675]
549.53	1.0	1641210	1642210	ELCue	VGS	87	4	False	lime	600	[1350 1830  405  675]	[ 90 570 405 675]
550.948	6.0	1642628	1648662	ShowFixation	VGS	88	4	False	lime	180	[405 885 405 675]	[1035 1515  405  675]
556.982	0.2	1648662	1648901	BlankScreen	VGS	88	4	False	lime	180	[405 885 405 675]	[1035 1515  405  675]
557.221	1.0	1648901	1649901	ELCue	VGS	88	4	False	lime	180	[405 885 405 675]	[1035 1515  405  675]
558.645	2.0	1650325	1652353	ShowFixation	ANTI	89	4	False	red	40	[1350 1830  405  675]	[ 90 570 405 675]
560.673	0.2	1652353	1652588	BlankScreen	ANTI	89	4	False	red	40	[1350 1830  405  675]	[ 90 570 405 675]
560.908	1.0	1652588	1653588	ELCue	ANTI	89	4	False	red	40	[1350 1830  405  675]	[ 90 570 405 675]
562.328	6.0	1654008	1660040	ShowFixation	VGS	90	4	False	lime	460	[1035 1515  405  675]	[405 885 405 675]
568.36	0.2	1660040	1660279	BlankScreen	VGS	90	4	False	lime	460	[1035 1515  405  675]	[405 885 405 675]
568.599	1.0	1660279	1661279	ELCue	VGS	90	4	False	lime	460	[1035 1515  405  675]	[405 885 405 675]
570.021	2.0	1661701	1663730	ShowFixation	VGS	91	4	False	lime	600	[1350 1830  405  675]	[ 90 570 405 675]
572.05	0.2	1663730	1663966	BlankScreen	VGS	91	4	False	lime	600	[1350 1830  405  675]	[ 90 570 405 675]
572.286	1.0	1663966	1664966	ELCue	VGS	91	4	False	lime	600	[1350 1830  405  675]	[ 90 570 405 675]
573.71	6.0	1665390	1671417	ShowFixation	VGS	92	4	False	lime	180	[405 885 405 675]	[1035 1515  405  675]
579.737	0.2	1671417	1671657	BlankScreen	VGS	92	4	False	lime	180	[405 885 405 675]	[1035 1515  405  675]
579.977	1.0	1671657	1672657	ELCue	VGS	92	4	False	lime	180	[405 885 405 675]	[1035 1515  405  675]
581.398	6.0	1673078	1679108	ShowFixation	VGS	93	4	False	lime	460	[1035 1515  405  675]	[405 885 405 675]
587.428	0.2	1679108	1679348	BlankScreen	VGS	93	4	False	lime	460	[1035 1515  405  675]	[405 885 405 675]
587.668	1.0	1679348	1680348	ELCue	VGS	93	4	False	lime	460	[1035 1515  405  675]	[405 885 405 675]
589.091	6.0	1680771	1686799	ShowFixation	ANTI	94	4	False	red	600	[ 90 570 405 675]	[1350 1830  405  675]
595.119	0.2	1686799	1687039	BlankScreen	ANTI	94	4	False	red	600	[ 90 570 405 675]	[1350 1830  405  675]
595.359	1.0	1687039	1688039	ELCue	ANTI	94	4	False	red	600	[ 90 570 405 675]	[1350 1830  405  675]
596.762	2.0	1688442	1690474	ShowFixation	ANTI	95	4	False	red	600	[ 90 570 405 675]	[1350 1830  405  675]
598.794	0.2	1690474	1690709	BlankScreen	ANTI	95	4	False	red	600	[ 90 570 405 675]	[1350 1830  405  675]
599.029	1.0	1690709	1691709	ELCue	ANTI	95	4	False	red	600	[ 90 570 405 675]	[1350 1830  405  675]
600.452	6.0	1692132	1698161	ShowFixation	VGS	96	4	False	lime	600	[1350 1830  405  675]	[ 90 570 405 675]
606.481	0.2	1698161	1698400	BlankScreen	VGS	96	4	False	lime	600	[1350 1830  405  675]	[ 90 570 405 675]
606.72	1.0	1698400	1699400	ELCue	VGS	96	4	False	lime	600	[1350 1830  405  675]	[ 90 570 405 675]
608.141	2.0	1699821	1701851	ShowFixation	ANTI	97	4	False	red	40	[1350 1830  405  675]	[ 90 570 405 675]
610.171	0.2	1701851	1702087	BlankScreen	ANTI	97	4	False	red	40	[1350 1830  405  675]	[ 90 570 405 675]
610.407	1.0	1702087	1703087	ELCue	ANTI	97	4	False	red	40	[1350 1830  405  675]	[ 90 570 405 675]
611.828	2.0	1703508	1705538	ShowFixation	ANTI	98	4	False	red	600	[ 90 570 405 675]	[1350 1830  405  675]
613.858	0.2	1705538	1705774	BlankScreen	ANTI	98	4	False	red	600	[ 90 570 405 675]	[1350 1830  405  675]
614.094	1.0	1705774	1706774	ELCue	ANTI	98	4	False	red	600	[ 90 570 405 675]	[1350 1830  405  675]
615.516	2.0	1707196	1709225	ShowFixation	VGS	99	4	False	lime	460	[1035 1515  405  675]	[405 885 405 675]
617.545	0.2	1709225	1709461	BlankScreen	VGS	99	4	False	lime	460	[1035 1515  405  675]	[405 885 405 675]
617.781	1.0	1709461	1710461	ELCue	VGS	99	4	False	lime	460	[1035 1515  405  675]	[405 885 405 675]
619.202	2.0	1710882	1712912	ShowFixation	VGS	100	4	False	lime	40	[ 90 570 405 675]	[1350 1830  405  675]
621.232	0.2	1712912	1713148	BlankScreen	VGS	100	4	False	lime	40	[ 90 570 405 675]	[1350 1830  405  675]
621.468	1.0	1713148	1714148	ELCue	VGS	100	4	False	lime	40	[ 90 570 405 675]	[1350 1830  405  675]
622.891	6.0	1714571	1720599	ShowFixation	ANTI	101	4	False	red	40	[1350 1830  405  675]	[ 90 570 405 675]
628.919	0.2	1720599	1720839	BlankScreen	ANTI	101	4	False	red	40	[1350 1830  405  675]	[ 90 570 405 675]
629.159	1.0	1720839	1721839	ELCue	ANTI	101	4	False	red	40	[1350 1830  405  675]	[ 90 570 405 675]
630.579	6.0	1722259	1728290	ShowFixation	VGS	102	4	False	lime	600	[1350 1830  405  675]	[ 90 570 405 675]
636.61	0.2	1728290	1728529	BlankScreen	VGS	102	4	False	lime	600	[1350 1830  405  675]	[ 90 570 405 675]
636.849	1.0	1728529	1729529	ELCue	VGS	102	4	False	lime	600	[1350 1830  405  675]	[ 90 570 405 675]
638.27	2.0	1729950	1731981	ShowFixation	ANTI	103	4	False	red	180	[1035 1515  405  675]	[405 885 405 675]
640.301	0.2	1731981	1732216	BlankScreen	ANTI	103	4	False	red	180	[1035 1515  405  675]	[405 885 405 675]
640.536	1.0	1732216	1733216	ELCue	ANTI	103	4	False	red	180	[1035 1515  405  675]	[405 885 405 675]
641.959	2.0	1733639	1735668	ShowFixation	VGS	104	4	False	lime	180	[405 885 405 675]	[1035 1515  405  675]
643.988	0.2	1735668	1735903	BlankScreen	VGS	104	4	False	lime	180	[405 885 405 675]	[1035 1515  405  675]
644.223	1.0	1735903	1736903	ELCue	VGS	104	4	False	lime	180	[405 885 405 675]	[1035 1515  405  675]
645.605	2.0	1737285	1739322	ShowFixation	VGS	105	4	False	lime	40	[ 90 570 405 675]	[1350 1830  405  675]
647.642	0.2	1739322	1739557	BlankScreen	VGS	105	4	False	lime	40	[ 90 570 405 675]	[1350 1830  405  675]
647.877	1.0	1739557	1740557	ELCue	VGS	105	4	False	lime	40	[ 90 570 405 675]	[1350 1830  405  675]
649.299	2.0	1740979	1743009	ShowFixation	VGS	106	4	False	lime	180	[405 885 405 675]	[1035 1515  405  675]
651.329	0.2	1743009	1743244	BlankScreen	VGS	106	4	False	lime	180	[405 885 405 675]	[1035 1515  405  675]
651.564	1.0	1743244	1744244	ELCue	VGS	106	4	False	lime	180	[405 885 405 675]	[1035 1515  405  675]
652.985	2.0	1744665	1746696	ShowFixation	ANTI	107	4	False	red	460	[405 885 405 675]	[1035 1515  405  675]
655.016	0.2	1746696	1746931	BlankScreen	ANTI	107	4	False	red	460	[405 885 405 675]	[1035 1515  405  675]
655.251	1.0	1746931	1747931	ELCue	ANTI	107	4	False	red	460	[405 885 405 675]	[1035 1515  405  675]
656.669	6.0	1748349	1754384	ShowFixation	ANTI	108	4	False	red	40	[1350 1830  405  675]	[ 90 570 405 675]
662.704	0.2	1754384	1754622	BlankScreen	ANTI	108	4	False	red	40	[1350 1830  405  675]	[ 90 570 405 675]
662.942	1.0	1754622	1755622	ELCue	ANTI	108	4	False	red	40	[1350 1830  405  675]	[ 90 570 405 675]
664.349	6.0	1756029	1762057	ShowFixation	ANTI	109	4	False	red	180	[1035 1515  405  675]	[405 885 405 675]
670.378	0.2	1762058	1762296	BlankScreen	ANTI	109	4	False	red	180	[1035 1515  405  675]	[405 885 405 675]
670.616	1.0	1762296	1763296	ELCue	ANTI	109	4	False	red	180	[1035 1515  405  675]	[405 885 405 675]
672.039	6.0	1763719	1769749	ShowFixation	ANTI	110	4	False	red	180	[1035 1515  405  675]	[405 885 405 675]
678.069	0.2	1769749	1769988	BlankScreen	ANTI	110	4	False	red	180	[1035 1515  405  675]	[405 885 405 675]
678.308	1.0	1769988	1770988	ELCue	ANTI	110	4	False	red	180	[1035 1515  405  675]	[405 885 405 675]
679.727	2.0	1771407	1773440	ShowFixation	ANTI	111	4	False	red	460	[405 885 405 675]	[1035 1515  405  675]
681.76	0.2	1773440	1773675	BlankScreen	ANTI	111	4	False	red	460	[405 885 405 675]	[1035 1515  405  675]
681.995	1.0	1773675	1774675	ELCue	ANTI	111	4	False	red	460	[405 885 405 675]	[1035 1515  405  675]
683.397	6.0	1775077	1781110	ShowFixation	VGS	112	4	False	lime	40	[ 90 570 405 675]	[1350 1830  405  675]
689.43	0.2	1781110	1781349	BlankScreen	VGS	112	4	False	lime	40	[ 90 570 405 675]	[1350 1830  405  675]
689.669	1.0	1781349	1782349	ELCue	VGS	112	4	False	lime	40	[ 90 570 405 675]	[1350 1830  405  675]
