onset	duration	startTime	stopTime	eventIdentifier	trial_type	trial_number	block_number	is_practice	fixation_color	cue_side	aoi_correct	aoi_incorrect
0.151	2.0	789419	791449	ShowFixation	VGS	1	1	True	lime	40	[ 90 570 405 675]	[1350 1830  405  675]
2.181	0.2	791449	791684	BlankScreen	VGS	1	1	True	lime	40	[ 90 570 405 675]	[1350 1830  405  675]
2.416	1.0	791684	792725	ELCue	VGS	1	1	True	lime	40	[ 90 570 405 675]	[1350 1830  405  675]
3.873	2.0	793141	795770	ShowFixation	ANTI	2	1	True	red	180	[1035 1515  405  675]	[405 885 405 675]
6.502	0.2	795770	796005	BlankScreen	ANTI	2	1	True	red	180	[1035 1515  405  675]	[405 885 405 675]
6.737	1.0	796005	797046	ELCue	ANTI	2	1	True	red	180	[1035 1515  405  675]	[405 885 405 675]
8.2	6.0	797468	804091	ShowFixation	VGS	3	1	True	lime	460	[1035 1515  405  675]	[405 885 405 675]
14.823	0.2	804091	804330	BlankScreen	VGS	3	1	True	lime	460	[1035 1515  405  675]	[405 885 405 675]
15.062	1.0	804330	805371	ELCue	VGS	3	1	True	lime	460	[1035 1515  405  675]	[405 885 405 675]
16.502	2.0	805770	808416	ShowFixation	VGS	4	1	True	lime	600	[1350 1830  405  675]	[ 90 570 405 675]
19.148	0.2	808416	808651	BlankScreen	VGS	4	1	True	lime	600	[1350 1830  405  675]	[ 90 570 405 675]
19.383	1.0	808651	809692	ELCue	VGS	4	1	True	lime	600	[1350 1830  405  675]	[ 90 570 405 675]
20.838	6.0	810106	816720	ShowFixation	ANTI	5	1	True	red	600	[ 90 570 405 675]	[1350 1830  405  675]
27.452	0.2	816720	816959	BlankScreen	ANTI	5	1	True	red	600	[ 90 570 405 675]	[1350 1830  405  675]
27.691	1.0	816959	818000	ELCue	ANTI	5	1	True	red	600	[ 90 570 405 675]	[1350 1830  405  675]
29.148	6.0	818416	825028	ShowFixation	ANTI	6	1	True	red	180	[1035 1515  405  675]	[405 885 405 675]
35.76	0.2	825028	825267	BlankScreen	ANTI	6	1	True	red	180	[1035 1515  405  675]	[405 885 405 675]
35.999	1.0	825267	826308	ELCue	ANTI	6	1	True	red	180	[1035 1515  405  675]	[405 885 405 675]
37.459	2.0	826727	829354	ShowFixation	VGS	7	1	True	lime	180	[405 885 405 675]	[1035 1515  405  675]
40.086	0.2	829354	829588	BlankScreen	VGS	7	1	True	lime	180	[405 885 405 675]	[1035 1515  405  675]
40.32	1.0	829588	830627	ELCue	VGS	7	1	True	lime	180	[405 885 405 675]	[1035 1515  405  675]
41.765	6.0	831033	837674	ShowFixation	ANTI	8	1	True	red	460	[405 885 405 675]	[1035 1515  405  675]
48.406	0.2	837674	837913	BlankScreen	ANTI	8	1	True	red	460	[405 885 405 675]	[1035 1515  405  675]
48.645	1.0	837913	838954	ELCue	ANTI	8	1	True	red	460	[405 885 405 675]	[1035 1515  405  675]
50.103	2.0	839371	841999	ShowFixation	ANTI	9	1	True	red	460	[405 885 405 675]	[1035 1515  405  675]
52.731	0.2	841999	842234	BlankScreen	ANTI	9	1	True	red	460	[405 885 405 675]	[1035 1515  405  675]
52.966	1.0	842234	843275	ELCue	ANTI	9	1	True	red	460	[405 885 405 675]	[1035 1515  405  675]
54.422	2.0	843690	846320	ShowFixation	ANTI	10	1	True	red	600	[ 90 570 405 675]	[1350 1830  405  675]
57.052	0.2	846320	846555	BlankScreen	ANTI	10	1	True	red	600	[ 90 570 405 675]	[1350 1830  405  675]
57.287	1.0	846555	847596	ELCue	ANTI	10	1	True	red	600	[ 90 570 405 675]	[1350 1830  405  675]
58.711	6.0	847979	854642	ShowFixation	VGS	11	1	True	lime	600	[1350 1830  405  675]	[ 90 570 405 675]
65.374	0.2	854642	854880	BlankScreen	VGS	11	1	True	lime	600	[1350 1830  405  675]	[ 90 570 405 675]
65.612	1.0	854880	855921	ELCue	VGS	11	1	True	lime	600	[1350 1830  405  675]	[ 90 570 405 675]
67.071	6.0	856339	862967	ShowFixation	VGS	12	1	True	lime	180	[405 885 405 675]	[1035 1515  405  675]
73.699	0.2	862967	863206	BlankScreen	VGS	12	1	True	lime	180	[405 885 405 675]	[1035 1515  405  675]
73.938	1.0	863206	864246	ELCue	VGS	12	1	True	lime	180	[405 885 405 675]	[1035 1515  405  675]
75.395	2.0	864663	867275	ShowFixation	ANTI	13	1	True	red	40	[1350 1830  405  675]	[ 90 570 405 675]
78.007	0.2	867275	867493	BlankScreen	ANTI	13	1	True	red	40	[1350 1830  405  675]	[ 90 570 405 675]
78.225	1.0	867493	868516	ELCue	ANTI	13	1	True	red	40	[1350 1830  405  675]	[ 90 570 405 675]
79.663	6.0	868931	875562	ShowFixation	VGS	14	1	True	lime	40	[ 90 570 405 675]	[1350 1830  405  675]
86.294	0.2	875562	875802	BlankScreen	VGS	14	1	True	lime	40	[ 90 570 405 675]	[1350 1830  405  675]
86.534	1.0	875802	876842	ELCue	VGS	14	1	True	lime	40	[ 90 570 405 675]	[1350 1830  405  675]
87.986	6.0	877254	883887	ShowFixation	ANTI	15	1	True	red	40	[1350 1830  405  675]	[ 90 570 405 675]
94.619	0.2	883887	884126	BlankScreen	ANTI	15	1	True	red	40	[1350 1830  405  675]	[ 90 570 405 675]
94.858	1.0	884126	885167	ELCue	ANTI	15	1	True	red	40	[1350 1830  405  675]	[ 90 570 405 675]
96.318	2.0	885586	888212	ShowFixation	VGS	16	1	True	lime	460	[1035 1515  405  675]	[405 885 405 675]
98.944	0.2	888212	888447	BlankScreen	VGS	16	1	True	lime	460	[1035 1515  405  675]	[405 885 405 675]
99.179	1.0	888447	889485	ELCue	VGS	16	1	True	lime	460	[1035 1515  405  675]	[405 885 405 675]
121.598	2.0	910866	912903	ShowFixation	ANTI	17	2	False	red	40	[1350 1830  405  675]	[ 90 570 405 675]
123.635	0.2	912903	913138	BlankScreen	ANTI	17	2	False	red	40	[1350 1830  405  675]	[ 90 570 405 675]
123.87	1.0	913138	914138	ELCue	ANTI	17	2	False	red	40	[1350 1830  405  675]	[ 90 570 405 675]
125.276	6.0	914544	920573	ShowFixation	VGS	18	2	False	lime	180	[405 885 405 675]	[1035 1515  405  675]
131.305	0.2	920573	920813	BlankScreen	VGS	18	2	False	lime	180	[405 885 405 675]	[1035 1515  405  675]
131.545	1.0	920813	921813	ELCue	VGS	18	2	False	lime	180	[405 885 405 675]	[1035 1515  405  675]
132.961	2.0	922229	924264	ShowFixation	VGS	19	2	False	lime	600	[1350 1830  405  675]	[ 90 570 405 675]
134.996	0.2	924264	924500	BlankScreen	VGS	19	2	False	lime	600	[1350 1830  405  675]	[ 90 570 405 675]
135.232	1.0	924500	925500	ELCue	VGS	19	2	False	lime	600	[1350 1830  405  675]	[ 90 570 405 675]
136.654	6.0	925922	931951	ShowFixation	ANTI	20	2	False	red	180	[1035 1515  405  675]	[405 885 405 675]
142.683	0.2	931951	932191	BlankScreen	ANTI	20	2	False	red	180	[1035 1515  405  675]	[405 885 405 675]
142.923	1.0	932191	933191	ELCue	ANTI	20	2	False	red	180	[1035 1515  405  675]	[405 885 405 675]
144.346	6.0	933614	939642	ShowFixation	VGS	21	2	False	lime	460	[1035 1515  405  675]	[405 885 405 675]
150.374	0.2	939642	939881	BlankScreen	VGS	21	2	False	lime	460	[1035 1515  405  675]	[405 885 405 675]
150.613	1.0	939881	940881	ELCue	VGS	21	2	False	lime	460	[1035 1515  405  675]	[405 885 405 675]
152.036	2.0	941304	943333	ShowFixation	VGS	22	2	False	lime	180	[405 885 405 675]	[1035 1515  405  675]
154.065	0.2	943333	943568	BlankScreen	VGS	22	2	False	lime	180	[405 885 405 675]	[1035 1515  405  675]
154.3	1.0	943568	944568	ELCue	VGS	22	2	False	lime	180	[405 885 405 675]	[1035 1515  405  675]
155.719	6.0	944987	951020	ShowFixation	ANTI	23	2	False	red	600	[ 90 570 405 675]	[1350 1830  405  675]
161.752	0.2	951020	951259	BlankScreen	ANTI	23	2	False	red	600	[ 90 570 405 675]	[1350 1830  405  675]
161.991	1.0	951259	952259	ELCue	ANTI	23	2	False	red	600	[ 90 570 405 675]	[1350 1830  405  675]
163.415	2.0	952683	954711	ShowFixation	VGS	24	2	False	lime	180	[405 885 405 675]	[1035 1515  405  675]
165.443	0.2	954711	954946	BlankScreen	VGS	24	2	False	lime	180	[405 885 405 675]	[1035 1515  405  675]
165.678	1.0	954946	955946	ELCue	VGS	24	2	False	lime	180	[405 885 405 675]	[1035 1515  405  675]
167.1	6.0	956368	962398	ShowFixation	ANTI	25	2	False	red	460	[405 885 405 675]	[1035 1515  405  675]
173.13	0.2	962398	962637	BlankScreen	ANTI	25	2	False	red	460	[405 885 405 675]	[1035 1515  405  675]
173.369	1.0	962637	963637	ELCue	ANTI	25	2	False	red	460	[405 885 405 675]	[1035 1515  405  675]
174.791	6.0	964059	970089	ShowFixation	ANTI	26	2	False	red	600	[ 90 570 405 675]	[1350 1830  405  675]
180.821	0.2	970089	970328	BlankScreen	ANTI	26	2	False	red	600	[ 90 570 405 675]	[1350 1830  405  675]
181.06	1.0	970328	971328	ELCue	ANTI	26	2	False	red	600	[ 90 570 405 675]	[1350 1830  405  675]
182.478	2.0	971746	973780	ShowFixation	ANTI	27	2	False	red	180	[1035 1515  405  675]	[405 885 405 675]
184.512	0.2	973780	974015	BlankScreen	ANTI	27	2	False	red	180	[1035 1515  405  675]	[405 885 405 675]
184.747	1.0	974015	975015	ELCue	ANTI	27	2	False	red	180	[1035 1515  405  675]	[405 885 405 675]
186.168	2.0	975436	977467	ShowFixation	ANTI	28	2	False	red	460	[405 885 405 675]	[1035 1515  405  675]
188.199	0.2	977467	977702	BlankScreen	ANTI	28	2	False	red	460	[405 885 405 675]	[1035 1515  405  675]
188.434	1.0	977702	978702	ELCue	ANTI	28	2	False	red	460	[405 885 405 675]	[1035 1515  405  675]
189.858	2.0	979126	981154	ShowFixation	ANTI	29	2	False	red	40	[1350 1830  405  675]	[ 90 570 405 675]
191.886	0.2	981154	981389	BlankScreen	ANTI	29	2	False	red	40	[1350 1830  405  675]	[ 90 570 405 675]
192.121	1.0	981389	982389	ELCue	ANTI	29	2	False	red	40	[1350 1830  405  675]	[ 90 570 405 675]
193.546	2.0	982814	984841	ShowFixation	ANTI	30	2	False	red	600	[ 90 570 405 675]	[1350 1830  405  675]
195.573	0.2	984841	985076	BlankScreen	ANTI	30	2	False	red	600	[ 90 570 405 675]	[1350 1830  405  675]
195.808	1.0	985076	986076	ELCue	ANTI	30	2	False	red	600	[ 90 570 405 675]	[1350 1830  405  675]
197.223	2.0	986491	988528	ShowFixation	ANTI	31	2	False	red	600	[ 90 570 405 675]	[1350 1830  405  675]
199.26	0.2	988528	988763	BlankScreen	ANTI	31	2	False	red	600	[ 90 570 405 675]	[1350 1830  405  675]
199.495	1.0	988763	989763	ELCue	ANTI	31	2	False	red	600	[ 90 570 405 675]	[1350 1830  405  675]
200.91	2.0	990178	992215	ShowFixation	ANTI	32	2	False	red	180	[1035 1515  405  675]	[405 885 405 675]
202.948	0.2	992216	992450	BlankScreen	ANTI	32	2	False	red	180	[1035 1515  405  675]	[405 885 405 675]
203.182	1.0	992450	993450	ELCue	ANTI	32	2	False	red	180	[1035 1515  405  675]	[405 885 405 675]
204.6	2.0	993868	995902	ShowFixation	VGS	33	2	False	lime	600	[1350 1830  405  675]	[ 90 570 405 675]
206.634	0.2	995902	996138	BlankScreen	VGS	33	2	False	lime	600	[1350 1830  405  675]	[ 90 570 405 675]
206.87	1.0	996138	997138	ELCue	VGS	33	2	False	lime	600	[1350 1830  405  675]	[ 90 570 405 675]
208.291	6.0	997559	1003590	ShowFixation	ANTI	34	2	False	red	40	[1350 1830  405  675]	[ 90 570 405 675]
214.322	0.2	1003590	1003829	BlankScreen	ANTI	34	2	False	red	40	[1350 1830  405  675]	[ 90 570 405 675]
214.561	1.0	1003829	1004829	ELCue	ANTI	34	2	False	red	40	[1350 1830  405  675]	[ 90 570 405 675]
215.966	6.0	1005234	1011264	ShowFixation	VGS	35	2	False	lime	460	[1035 1515  405  675]	[405 885 405 675]
221.996	0.2	1011264	1011503	BlankScreen	VGS	35	2	False	lime	460	[1035 1515  405  675]	[405 885 405 675]
222.235	1.0	1011503	1012503	ELCue	VGS	35	2	False	lime	460	[1035 1515  405  675]	[405 885 405 675]
223.654	6.0	1012922	1018955	ShowFixation	VGS	36	2	False	lime	180	[405 885 405 675]	[1035 1515  405  675]
229.687	0.2	1018955	1019194	BlankScreen	VGS	36	2	False	lime	180	[405 885 405 675]	[1035 1515  405  675]
229.926	1.0	1019194	1020194	ELCue	VGS	36	2	False	lime	180	[405 885 405 675]	[1035 1515  405  675]
231.345	2.0	1020613	1022646	ShowFixation	VGS	37	2	False	lime	40	[ 90 570 405 675]	[1350 1830  405  675]
233.378	0.2	1022646	1022881	BlankScreen	VGS	37	2	False	lime	40	[ 90 570 405 675]	[1350 1830  405  675]
233.613	1.0	1022881	1023881	ELCue	VGS	37	2	False	lime	40	[ 90 570 405 675]	[1350 1830  405  675]
235.038	2.0	1024306	1026333	ShowFixation	VGS	38	2	False	lime	40	[ 90 570 405 675]	[1350 1830  405  675]
237.065	0.2	1026333	1026568	BlankScreen	VGS	38	2	False	lime	40	[ 90 570 405 675]	[1350 1830  405  675]
237.3	1.0	1026568	1027568	ELCue	VGS	38	2	False	lime	40	[ 90 570 405 675]	[1350 1830  405  675]
238.726	6.0	1027994	1034020	ShowFixation	VGS	39	2	False	lime	40	[ 90 570 405 675]	[1350 1830  405  675]
244.752	0.2	1034020	1034259	BlankScreen	VGS	39	2	False	lime	40	[ 90 570 405 675]	[1350 1830  405  675]
244.991	1.0	1034259	1035259	ELCue	VGS	39	2	False	lime	40	[ 90 570 405 675]	[1350 1830  405  675]
246.41	6.0	1035678	1041710	ShowFixation	ANTI	40	2	False	red	40	[1350 1830  405  675]	[ 90 570 405 675]
252.442	0.2	1041710	1041950	BlankScreen	ANTI	40	2	False	red	40	[1350 1830  405  675]	[ 90 570 405 675]
252.682	1.0	1041950	1042950	ELCue	ANTI	40	2	False	red	40	[1350 1830  405  675]	[ 90 570 405 675]
254.106	6.0	1043374	1049401	ShowFixation	VGS	41	2	False	lime	40	[ 90 570 405 675]	[1350 1830  405  675]
260.133	0.2	1049401	1049641	BlankScreen	VGS	41	2	False	lime	40	[ 90 570 405 675]	[1350 1830  405  675]
260.373	1.0	1049641	1050641	ELCue	VGS	41	2	False	lime	40	[ 90 570 405 675]	[1350 1830  405  675]
261.797	2.0	1051065	1053092	ShowFixation	VGS	42	2	False	lime	460	[1035 1515  405  675]	[405 885 405 675]
263.824	0.2	1053092	1053328	BlankScreen	VGS	42	2	False	lime	460	[1035 1515  405  675]	[405 885 405 675]
264.06	1.0	1053328	1054328	ELCue	VGS	42	2	False	lime	460	[1035 1515  405  675]	[405 885 405 675]
265.482	6.0	1054750	1060779	ShowFixation	VGS	43	2	False	lime	600	[1350 1830  405  675]	[ 90 570 405 675]
271.511	0.2	1060779	1061019	BlankScreen	VGS	43	2	False	lime	600	[1350 1830  405  675]	[ 90 570 405 675]
271.751	1.0	1061019	1062019	ELCue	VGS	43	2	False	lime	600	[1350 1830  405  675]	[ 90 570 405 675]
273.172	6.0	1062440	1068470	ShowFixation	ANTI	44	2	False	red	460	[405 885 405 675]	[1035 1515  405  675]
279.202	0.2	1068470	1068709	BlankScreen	ANTI	44	2	False	red	460	[405 885 405 675]	[1035 1515  405  675]
279.441	1.0	1068709	1069709	ELCue	ANTI	44	2	False	red	460	[405 885 405 675]	[1035 1515  405  675]
280.866	6.0	1070134	1076161	ShowFixation	ANTI	45	2	False	red	180	[1035 1515  405  675]	[405 885 405 675]
286.893	0.2	1076161	1076400	BlankScreen	ANTI	45	2	False	red	180	[1035 1515  405  675]	[405 885 405 675]
287.132	1.0	1076400	1077400	ELCue	ANTI	45	2	False	red	180	[1035 1515  405  675]	[405 885 405 675]
288.557	2.0	1077825	1079852	ShowFixation	ANTI	46	2	False	red	460	[405 885 405 675]	[1035 1515  405  675]
290.584	0.2	1079852	1080087	BlankScreen	ANTI	46	2	False	red	460	[405 885 405 675]	[1035 1515  405  675]
290.819	1.0	1080087	1081087	ELCue	ANTI	46	2	False	red	460	[405 885 405 675]	[1035 1515  405  675]
292.225	6.0	1081493	1087522	ShowFixation	VGS	47	2	False	lime	600	[1350 1830  405  675]	[ 90 570 405 675]
298.254	0.2	1087522	1087762	BlankScreen	VGS	47	2	False	lime	600	[1350 1830  405  675]	[ 90 570 405 675]
298.494	1.0	1087762	1088762	ELCue	VGS	47	2	False	lime	600	[1350 1830  405  675]	[ 90 570 405 675]
299.918	2.0	1089186	1091213	ShowFixation	VGS	48	2	False	lime	460	[1035 1515  405  675]	[405 885 405 675]
301.945	0.2	1091213	1091449	BlankScreen	VGS	48	2	False	lime	460	[1035 1515  405  675]	[405 885 405 675]
302.181	1.0	1091449	1092449	ELCue	VGS	48	2	False	lime	460	[1035 1515  405  675]	[405 885 405 675]
336.723	6.0	1125991	1132016	ShowFixation	VGS	49	3	False	lime	40	[ 90 570 405 675]	[1350 1830  405  675]
342.749	0.2	1132017	1132255	BlankScreen	VGS	49	3	False	lime	40	[ 90 570 405 675]	[1350 1830  405  675]
342.987	1.0	1132255	1133255	ELCue	VGS	49	3	False	lime	40	[ 90 570 405 675]	[1350 1830  405  675]
344.409	6.0	1133677	1139708	ShowFixation	VGS	50	3	False	lime	460	[1035 1515  405  675]	[405 885 405 675]
350.44	0.2	1139708	1139947	BlankScreen	VGS	50	3	False	lime	460	[1035 1515  405  675]	[405 885 405 675]
350.679	1.0	1139947	1140947	ELCue	VGS	50	3	False	lime	460	[1035 1515  405  675]	[405 885 405 675]
352.101	2.0	1141369	1143399	ShowFixation	VGS	51	3	False	lime	600	[1350 1830  405  675]	[ 90 570 405 675]
354.131	0.2	1143399	1143634	BlankScreen	VGS	51	3	False	lime	600	[1350 1830  405  675]	[ 90 570 405 675]
354.366	1.0	1143634	1144634	ELCue	VGS	51	3	False	lime	600	[1350 1830  405  675]	[ 90 570 405 675]
355.788	6.0	1145056	1151086	ShowFixation	ANTI	52	3	False	red	600	[ 90 570 405 675]	[1350 1830  405  675]
361.818	0.2	1151086	1151325	BlankScreen	ANTI	52	3	False	red	600	[ 90 570 405 675]	[1350 1830  405  675]
362.057	1.0	1151325	1152325	ELCue	ANTI	52	3	False	red	600	[ 90 570 405 675]	[1350 1830  405  675]
363.464	6.0	1152732	1158760	ShowFixation	VGS	53	3	False	lime	180	[405 885 405 675]	[1035 1515  405  675]
369.492	0.2	1158760	1158999	BlankScreen	VGS	53	3	False	lime	180	[405 885 405 675]	[1035 1515  405  675]
369.731	1.0	1158999	1159999	ELCue	VGS	53	3	False	lime	180	[405 885 405 675]	[1035 1515  405  675]
371.156	6.0	1160424	1166451	ShowFixation	ANTI	54	3	False	red	180	[1035 1515  405  675]	[405 885 405 675]
377.183	0.2	1166451	1166690	BlankScreen	ANTI	54	3	False	red	180	[1035 1515  405  675]	[405 885 405 675]
377.422	1.0	1166690	1167690	ELCue	ANTI	54	3	False	red	180	[1035 1515  405  675]	[405 885 405 675]
378.845	6.0	1168113	1174142	ShowFixation	VGS	55	3	False	lime	40	[ 90 570 405 675]	[1350 1830  405  675]
384.874	0.2	1174142	1174381	BlankScreen	VGS	55	3	False	lime	40	[ 90 570 405 675]	[1350 1830  405  675]
385.113	1.0	1174381	1175381	ELCue	VGS	55	3	False	lime	40	[ 90 570 405 675]	[1350 1830  405  675]
386.533	2.0	1175801	1177833	ShowFixation	VGS	56	3	False	lime	600	[1350 1830  405  675]	[ 90 570 405 675]
388.565	0.2	1177833	1178068	BlankScreen	VGS	56	3	False	lime	600	[1350 1830  405  675]	[ 90 570 405 675]
388.8	1.0	1178068	1179068	ELCue	VGS	56	3	False	lime	600	[1350 1830  405  675]	[ 90 570 405 675]
390.226	2.0	1179494	1181520	ShowFixation	VGS	57	3	False	lime	460	[1035 1515  405  675]	[405 885 405 675]
392.252	0.2	1181520	1181755	BlankScreen	VGS	57	3	False	lime	460	[1035 1515  405  675]	[405 885 405 675]
392.487	1.0	1181755	1182755	ELCue	VGS	57	3	False	lime	460	[1035 1515  405  675]	[405 885 405 675]
393.912	2.0	1183180	1185207	ShowFixation	ANTI	58	3	False	red	40	[1350 1830  405  675]	[ 90 570 405 675]
395.939	0.2	1185207	1185442	BlankScreen	ANTI	58	3	False	red	40	[1350 1830  405  675]	[ 90 570 405 675]
396.174	1.0	1185442	1186442	ELCue	ANTI	58	3	False	red	40	[1350 1830  405  675]	[ 90 570 405 675]
397.596	2.0	1186864	1188894	ShowFixation	ANTI	59	3	False	red	180	[1035 1515  405  675]	[405 885 405 675]
399.626	0.2	1188894	1189129	BlankScreen	ANTI	59	3	False	red	180	[1035 1515  405  675]	[405 885 405 675]
399.861	1.0	1189129	1190129	ELCue	ANTI	59	3	False	red	180	[1035 1515  405  675]	[405 885 405 675]
401.282	6.0	1190550	1196581	ShowFixation	ANTI	60	3	False	red	600	[ 90 570 405 675]	[1350 1830  405  675]
407.313	0.2	1196581	1196820	BlankScreen	ANTI	60	3	False	red	600	[ 90 570 405 675]	[1350 1830  405  675]
407.552	1.0	1196820	1197820	ELCue	ANTI	60	3	False	red	600	[ 90 570 405 675]	[1350 1830  405  675]
408.978	2.0	1198246	1200272	ShowFixation	ANTI	61	3	False	red	180	[1035 1515  405  675]	[405 885 405 675]
411.004	0.2	1200272	1200507	BlankScreen	ANTI	61	3	False	red	180	[1035 1515  405  675]	[405 885 405 675]
411.239	1.0	1200507	1201507	ELCue	ANTI	61	3	False	red	180	[1035 1515  405  675]	[405 885 405 675]
412.663	2.0	1201931	1203959	ShowFixation	VGS	62	3	False	lime	180	[405 885 405 675]	[1035 1515  405  675]
414.691	0.2	1203959	1204194	BlankScreen	VGS	62	3	False	lime	180	[405 885 405 675]	[1035 1515  405  675]
414.926	1.0	1204194	1205194	ELCue	VGS	62	3	False	lime	180	[405 885 405 675]	[1035 1515  405  675]
416.35	6.0	1205618	1211646	ShowFixation	ANTI	63	3	False	red	40	[1350 1830  405  675]	[ 90 570 405 675]
422.378	0.2	1211646	1211885	BlankScreen	ANTI	63	3	False	red	40	[1350 1830  405  675]	[ 90 570 405 675]
422.617	1.0	1211885	1212885	ELCue	ANTI	63	3	False	red	40	[1350 1830  405  675]	[ 90 570 405 675]
424.038	2.0	1213306	1215337	ShowFixation	VGS	64	3	False	lime	460	[1035 1515  405  675]	[405 885 405 675]
426.069	0.2	1215337	1215572	BlankScreen	VGS	64	3	False	lime	460	[1035 1515  405  675]	[405 885 405 675]
426.304	1.0	1215572	1216572	ELCue	VGS	64	3	False	lime	460	[1035 1515  405  675]	[405 885 405 675]
427.727	2.0	1216995	1219024	ShowFixation	ANTI	65	3	False	red	460	[405 885 405 675]	[1035 1515  405  675]
429.756	0.2	1219024	1219259	BlankScreen	ANTI	65	3	False	red	460	[405 885 405 675]	[1035 1515  405  675]
429.991	1.0	1219259	1220259	ELCue	ANTI	65	3	False	red	460	[405 885 405 675]	[1035 1515  405  675]
431.408	6.0	1220676	1226711	ShowFixation	ANTI	66	3	False	red	40	[1350 1830  405  675]	[ 90 570 405 675]
437.443	0.2	1226711	1226950	BlankScreen	ANTI	66	3	False	red	40	[1350 1830  405  675]	[ 90 570 405 675]
437.682	1.0	1226950	1227950	ELCue	ANTI	66	3	False	red	40	[1350 1830  405  675]	[ 90 570 405 675]
439.1	6.0	1228368	1234401	ShowFixation	VGS	67	3	False	lime	600	[1350 1830  405  675]	[ 90 570 405 675]
445.133	0.2	1234401	1234641	BlankScreen	VGS	67	3	False	lime	600	[1350 1830  405  675]	[ 90 570 405 675]
445.373	1.0	1234641	1235641	ELCue	VGS	67	3	False	lime	600	[1350 1830  405  675]	[ 90 570 405 675]
446.793	2.0	1236061	1238092	ShowFixation	ANTI	68	3	False	red	600	[ 90 570 405 675]	[1350 1830  405  675]
448.824	0.2	1238092	1238328	BlankScreen	ANTI	68	3	False	red	600	[ 90 570 405 675]	[1350 1830  405  675]
449.06	1.0	1238328	1239328	ELCue	ANTI	68	3	False	red	600	[ 90 570 405 675]	[1350 1830  405  675]
450.483	6.0	1239751	1245779	ShowFixation	VGS	69	3	False	lime	460	[1035 1515  405  675]	[405 885 405 675]
456.511	0.2	1245779	1246019	BlankScreen	VGS	69	3	False	lime	460	[1035 1515  405  675]	[405 885 405 675]
456.751	1.0	1246019	1247019	ELCue	VGS	69	3	False	lime	460	[1035 1515  405  675]	[405 885 405 675]
458.166	2.0	1247434	1249470	ShowFixation	ANTI	70	3	False	red	460	[405 885 405 675]	[1035 1515  405  675]
460.202	0.2	1249470	1249706	BlankScreen	ANTI	70	3	False	red	460	[405 885 405 675]	[1035 1515  405  675]
460.438	1.0	1249706	1250706	ELCue	ANTI	70	3	False	red	460	[405 885 405 675]	[1035 1515  405  675]
461.858	6.0	1251126	1257157	ShowFixation	ANTI	71	3	False	red	180	[1035 1515  405  675]	[405 885 405 675]
467.889	0.2	1257157	1257397	BlankScreen	ANTI	71	3	False	red	180	[1035 1515  405  675]	[405 885 405 675]
468.129	1.0	1257397	1258397	ELCue	ANTI	71	3	False	red	180	[1035 1515  405  675]	[405 885 405 675]
469.55	2.0	1258818	1260848	ShowFixation	VGS	72	3	False	lime	40	[ 90 570 405 675]	[1350 1830  405  675]
471.58	0.2	1260848	1261083	BlankScreen	VGS	72	3	False	lime	40	[ 90 570 405 675]	[1350 1830  405  675]
471.815	1.0	1261083	1262083	ELCue	VGS	72	3	False	lime	40	[ 90 570 405 675]	[1350 1830  405  675]
473.224	6.0	1262492	1268518	ShowFixation	VGS	73	3	False	lime	600	[1350 1830  405  675]	[ 90 570 405 675]
479.251	0.2	1268519	1268758	BlankScreen	VGS	73	3	False	lime	600	[1350 1830  405  675]	[ 90 570 405 675]
479.491	1.0	1268759	1269759	ELCue	VGS	73	3	False	lime	600	[1350 1830  405  675]	[ 90 570 405 675]
480.914	2.0	1270182	1272209	ShowFixation	VGS	74	3	False	lime	40	[ 90 570 405 675]	[1350 1830  405  675]
482.942	0.2	1272210	1272445	BlankScreen	VGS	74	3	False	lime	40	[ 90 570 405 675]	[1350 1830  405  675]
483.178	1.0	1272446	1273446	ELCue	VGS	74	3	False	lime	40	[ 90 570 405 675]	[1350 1830  405  675]
484.596	2.0	1273864	1275897	ShowFixation	ANTI	75	3	False	red	600	[ 90 570 405 675]	[1350 1830  405  675]
486.629	0.2	1275897	1276132	BlankScreen	ANTI	75	3	False	red	600	[ 90 570 405 675]	[1350 1830  405  675]
486.865	1.0	1276133	1277133	ELCue	ANTI	75	3	False	red	600	[ 90 570 405 675]	[1350 1830  405  675]
488.285	2.0	1277553	1279584	ShowFixation	VGS	76	3	False	lime	180	[405 885 405 675]	[1035 1515  405  675]
490.316	0.2	1279584	1279820	BlankScreen	VGS	76	3	False	lime	180	[405 885 405 675]	[1035 1515  405  675]
490.552	1.0	1279820	1280820	ELCue	VGS	76	3	False	lime	180	[405 885 405 675]	[1035 1515  405  675]
491.975	6.0	1281243	1287271	ShowFixation	ANTI	77	3	False	red	460	[405 885 405 675]	[1035 1515  405  675]
498.003	0.2	1287271	1287511	BlankScreen	ANTI	77	3	False	red	460	[405 885 405 675]	[1035 1515  405  675]
498.243	1.0	1287511	1288511	ELCue	ANTI	77	3	False	red	460	[405 885 405 675]	[1035 1515  405  675]
499.664	2.0	1288932	1290962	ShowFixation	ANTI	78	3	False	red	40	[1350 1830  405  675]	[ 90 570 405 675]
501.694	0.2	1290962	1291198	BlankScreen	ANTI	78	3	False	red	40	[1350 1830  405  675]	[ 90 570 405 675]
501.93	1.0	1291198	1292198	ELCue	ANTI	78	3	False	red	40	[1350 1830  405  675]	[ 90 570 405 675]
503.347	6.0	1292615	1298649	ShowFixation	ANTI	79	3	False	red	460	[405 885 405 675]	[1035 1515  405  675]
509.381	0.2	1298649	1298888	BlankScreen	ANTI	79	3	False	red	460	[405 885 405 675]	[1035 1515  405  675]
509.62	1.0	1298888	1299888	ELCue	ANTI	79	3	False	red	460	[405 885 405 675]	[1035 1515  405  675]
511.042	6.0	1300310	1306340	ShowFixation	VGS	80	3	False	lime	180	[405 885 405 675]	[1035 1515  405  675]
517.072	0.2	1306340	1306579	BlankScreen	VGS	80	3	False	lime	180	[405 885 405 675]	[1035 1515  405  675]
517.311	1.0	1306579	1307579	ELCue	VGS	80	3	False	lime	180	[405 885 405 675]	[1035 1515  405  675]
537.696	6.0	1326964	1333000	ShowFixation	VGS	81	4	False	lime	180	[405 885 405 675]	[1035 1515  405  675]
543.732	0.2	1333000	1333239	BlankScreen	VGS	81	4	False	lime	180	[405 885 405 675]	[1035 1515  405  675]
543.971	1.0	1333239	1334239	ELCue	VGS	81	4	False	lime	180	[405 885 405 675]	[1035 1515  405  675]
545.391	2.0	1334659	1336691	ShowFixation	VGS	82	4	False	lime	460	[1035 1515  405  675]	[405 885 405 675]
547.423	0.2	1336691	1336926	BlankScreen	VGS	82	4	False	lime	460	[1035 1515  405  675]	[405 885 405 675]
547.658	1.0	1336926	1337926	ELCue	VGS	82	4	False	lime	460	[1035 1515  405  675]	[405 885 405 675]
549.08	2.0	1338348	1340378	ShowFixation	ANTI	83	4	False	red	180	[1035 1515  405  675]	[405 885 405 675]
551.11	0.2	1340378	1340613	BlankScreen	ANTI	83	4	False	red	180	[1035 1515  405  675]	[405 885 405 675]
551.345	1.0	1340613	1341613	ELCue	ANTI	83	4	False	red	180	[1035 1515  405  675]	[405 885 405 675]
552.765	6.0	1342033	1348065	ShowFixation	ANTI	84	4	False	red	460	[405 885 405 675]	[1035 1515  405  675]
558.797	0.2	1348065	1348304	BlankScreen	ANTI	84	4	False	red	460	[405 885 405 675]	[1035 1515  405  675]
559.036	1.0	1348304	1349304	ELCue	ANTI	84	4	False	red	460	[405 885 405 675]	[1035 1515  405  675]
560.458	2.0	1349726	1351755	ShowFixation	VGS	85	4	False	lime	180	[405 885 405 675]	[1035 1515  405  675]
562.487	0.2	1351755	1351991	BlankScreen	VGS	85	4	False	lime	180	[405 885 405 675]	[1035 1515  405  675]
562.723	1.0	1351991	1352991	ELCue	VGS	85	4	False	lime	180	[405 885 405 675]	[1035 1515  405  675]
564.144	6.0	1353412	1359442	ShowFixation	ANTI	86	4	False	red	40	[1350 1830  405  675]	[ 90 570 405 675]
570.174	0.2	1359442	1359682	BlankScreen	ANTI	86	4	False	red	40	[1350 1830  405  675]	[ 90 570 405 675]
570.414	1.0	1359682	1360682	ELCue	ANTI	86	4	False	red	40	[1350 1830  405  675]	[ 90 570 405 675]
571.837	6.0	1361105	1367133	ShowFixation	VGS	87	4	False	lime	460	[1035 1515  405  675]	[405 885 405 675]
577.865	0.2	1367133	1367373	BlankScreen	VGS	87	4	False	lime	460	[1035 1515  405  675]	[405 885 405 675]
578.105	1.0	1367373	1368373	ELCue	VGS	87	4	False	lime	460	[1035 1515  405  675]	[405 885 405 675]
579.528	2.0	1368796	1370824	ShowFixation	ANTI	88	4	False	red	600	[ 90 570 405 675]	[1350 1830  405  675]
581.556	0.2	1370824	1371060	BlankScreen	ANTI	88	4	False	red	600	[ 90 570 405 675]	[1350 1830  405  675]
581.792	1.0	1371060	1372060	ELCue	ANTI	88	4	False	red	600	[ 90 570 405 675]	[1350 1830  405  675]
583.212	2.0	1372480	1374511	ShowFixation	ANTI	89	4	False	red	460	[405 885 405 675]	[1035 1515  405  675]
585.243	0.2	1374511	1374747	BlankScreen	ANTI	89	4	False	red	460	[405 885 405 675]	[1035 1515  405  675]
585.479	1.0	1374747	1375747	ELCue	ANTI	89	4	False	red	460	[405 885 405 675]	[1035 1515  405  675]
586.901	2.0	1376169	1378198	ShowFixation	ANTI	90	4	False	red	600	[ 90 570 405 675]	[1350 1830  405  675]
588.93	0.2	1378198	1378434	BlankScreen	ANTI	90	4	False	red	600	[ 90 570 405 675]	[1350 1830  405  675]
589.166	1.0	1378434	1379434	ELCue	ANTI	90	4	False	red	600	[ 90 570 405 675]	[1350 1830  405  675]
590.584	2.0	1379852	1381885	ShowFixation	ANTI	91	4	False	red	180	[1035 1515  405  675]	[405 885 405 675]
592.617	0.2	1381885	1382120	BlankScreen	ANTI	91	4	False	red	180	[1035 1515  405  675]	[405 885 405 675]
592.852	1.0	1382120	1383120	ELCue	ANTI	91	4	False	red	180	[1035 1515  405  675]	[405 885 405 675]
594.275	6.0	1383543	1389572	ShowFixation	ANTI	92	4	False	red	180	[1035 1515  405  675]	[405 885 405 675]
600.304	0.2	1389572	1389811	BlankScreen	ANTI	92	4	False	red	180	[1035 1515  405  675]	[405 885 405 675]
600.543	1.0	1389811	1390811	ELCue	ANTI	92	4	False	red	180	[1035 1515  405  675]	[405 885 405 675]
601.967	6.0	1391235	1397263	ShowFixation	VGS	93	4	False	lime	180	[405 885 405 675]	[1035 1515  405  675]
607.995	0.2	1397263	1397502	BlankScreen	VGS	93	4	False	lime	180	[405 885 405 675]	[1035 1515  405  675]
608.235	1.0	1397503	1398503	ELCue	VGS	93	4	False	lime	180	[405 885 405 675]	[1035 1515  405  675]
609.621	2.0	1398889	1400921	ShowFixation	ANTI	94	4	False	red	40	[1350 1830  405  675]	[ 90 570 405 675]
611.653	0.2	1400921	1401156	BlankScreen	ANTI	94	4	False	red	40	[1350 1830  405  675]	[ 90 570 405 675]
611.889	1.0	1401157	1402157	ELCue	ANTI	94	4	False	red	40	[1350 1830  405  675]	[ 90 570 405 675]
613.307	2.0	1402575	1404608	ShowFixation	VGS	95	4	False	lime	600	[1350 1830  405  675]	[ 90 570 405 675]
615.341	0.2	1404609	1404843	BlankScreen	VGS	95	4	False	lime	600	[1350 1830  405  675]	[ 90 570 405 675]
615.575	1.0	1404843	1405843	ELCue	VGS	95	4	False	lime	600	[1350 1830  405  675]	[ 90 570 405 675]
616.996	6.0	1406264	1412295	ShowFixation	VGS	96	4	False	lime	600	[1350 1830  405  675]	[ 90 570 405 675]
623.027	0.2	1412295	1412535	BlankScreen	VGS	96	4	False	lime	600	[1350 1830  405  675]	[ 90 570 405 675]
623.267	1.0	1412535	1413535	ELCue	VGS	96	4	False	lime	600	[1350 1830  405  675]	[ 90 570 405 675]
624.688	6.0	1413956	1419986	ShowFixation	ANTI	97	4	False	red	40	[1350 1830  405  675]	[ 90 570 405 675]
630.718	0.2	1419986	1420226	BlankScreen	ANTI	97	4	False	red	40	[1350 1830  405  675]	[ 90 570 405 675]
630.958	1.0	1420226	1421226	ELCue	ANTI	97	4	False	red	40	[1350 1830  405  675]	[ 90 570 405 675]
632.382	2.0	1421650	1423677	ShowFixation	VGS	98	4	False	lime	460	[1035 1515  405  675]	[405 885 405 675]
634.409	0.2	1423677	1423913	BlankScreen	VGS	98	4	False	lime	460	[1035 1515  405  675]	[405 885 405 675]
634.645	1.0	1423913	1424913	ELCue	VGS	98	4	False	lime	460	[1035 1515  405  675]	[405 885 405 675]
636.065	2.0	1425333	1427364	ShowFixation	ANTI	99	4	False	red	40	[1350 1830  405  675]	[ 90 570 405 675]
638.096	0.2	1427364	1427600	BlankScreen	ANTI	99	4	False	red	40	[1350 1830  405  675]	[ 90 570 405 675]
638.332	1.0	1427600	1428600	ELCue	ANTI	99	4	False	red	40	[1350 1830  405  675]	[ 90 570 405 675]
639.751	2.0	1429019	1431051	ShowFixation	ANTI	100	4	False	red	460	[405 885 405 675]	[1035 1515  405  675]
641.783	0.2	1431051	1431287	BlankScreen	ANTI	100	4	False	red	460	[405 885 405 675]	[1035 1515  405  675]
642.019	1.0	1431287	1432287	ELCue	ANTI	100	4	False	red	460	[405 885 405 675]	[1035 1515  405  675]
643.447	6.0	1432715	1438755	ShowFixation	ANTI	101	4	False	red	600	[ 90 570 405 675]	[1350 1830  405  675]
649.487	0.2	1438755	1438994	BlankScreen	ANTI	101	4	False	red	600	[ 90 570 405 675]	[1350 1830  405  675]
649.726	1.0	1438994	1439994	ELCue	ANTI	101	4	False	red	600	[ 90 570 405 675]	[1350 1830  405  675]
651.149	2.0	1440417	1442446	ShowFixation	VGS	102	4	False	lime	40	[ 90 570 405 675]	[1350 1830  405  675]
653.178	0.2	1442446	1442681	BlankScreen	VGS	102	4	False	lime	40	[ 90 570 405 675]	[1350 1830  405  675]
653.413	1.0	1442681	1443681	ELCue	VGS	102	4	False	lime	40	[ 90 570 405 675]	[1350 1830  405  675]
654.833	6.0	1444101	1450133	ShowFixation	VGS	103	4	False	lime	460	[1035 1515  405  675]	[405 885 405 675]
660.865	0.2	1450133	1450372	BlankScreen	VGS	103	4	False	lime	460	[1035 1515  405  675]	[405 885 405 675]
661.104	1.0	1450372	1451372	ELCue	VGS	103	4	False	lime	460	[1035 1515  405  675]	[405 885 405 675]
662.526	6.0	1451794	1457824	ShowFixation	VGS	104	4	False	lime	40	[ 90 570 405 675]	[1350 1830  405  675]
668.556	0.2	1457824	1458063	BlankScreen	VGS	104	4	False	lime	40	[ 90 570 405 675]	[1350 1830  405  675]
668.795	1.0	1458063	1459063	ELCue	VGS	104	4	False	lime	40	[ 90 570 405 675]	[1350 1830  405  675]
670.216	2.0	1459484	1461515	ShowFixation	VGS	105	4	False	lime	600	[1350 1830  405  675]	[ 90 570 405 675]
672.247	0.2	1461515	1461750	BlankScreen	VGS	105	4	False	lime	600	[1350 1830  405  675]	[ 90 570 405 675]
672.482	1.0	1461750	1462750	ELCue	VGS	105	4	False	lime	600	[1350 1830  405  675]	[ 90 570 405 675]
673.901	6.0	1463169	1469202	ShowFixation	ANTI	106	4	False	red	600	[ 90 570 405 675]	[1350 1830  405  675]
679.934	0.2	1469202	1469441	BlankScreen	ANTI	106	4	False	red	600	[ 90 570 405 675]	[1350 1830  405  675]
680.173	1.0	1469441	1470441	ELCue	ANTI	106	4	False	red	600	[ 90 570 405 675]	[1350 1830  405  675]
681.592	6.0	1470860	1476892	ShowFixation	ANTI	107	4	False	red	180	[1035 1515  405  675]	[405 885 405 675]
687.624	0.2	1476892	1477132	BlankScreen	ANTI	107	4	False	red	180	[1035 1515  405  675]	[405 885 405 675]
687.864	1.0	1477132	1478132	ELCue	ANTI	107	4	False	red	180	[1035 1515  405  675]	[405 885 405 675]
689.289	2.0	1478557	1480583	ShowFixation	VGS	108	4	False	lime	180	[405 885 405 675]	[1035 1515  405  675]
691.315	0.2	1480583	1480819	BlankScreen	VGS	108	4	False	lime	180	[405 885 405 675]	[1035 1515  405  675]
691.551	1.0	1480819	1481819	ELCue	VGS	108	4	False	lime	180	[405 885 405 675]	[1035 1515  405  675]
692.973	6.0	1482241	1488270	ShowFixation	VGS	109	4	False	lime	600	[1350 1830  405  675]	[ 90 570 405 675]
699.002	0.2	1488270	1488510	BlankScreen	VGS	109	4	False	lime	600	[1350 1830  405  675]	[ 90 570 405 675]
699.242	1.0	1488510	1489510	ELCue	VGS	109	4	False	lime	600	[1350 1830  405  675]	[ 90 570 405 675]
700.664	2.0	1489932	1491961	ShowFixation	VGS	110	4	False	lime	40	[ 90 570 405 675]	[1350 1830  405  675]
702.693	0.2	1491961	1492197	BlankScreen	VGS	110	4	False	lime	40	[ 90 570 405 675]	[1350 1830  405  675]
702.929	1.0	1492197	1493197	ELCue	VGS	110	4	False	lime	40	[ 90 570 405 675]	[1350 1830  405  675]
704.348	6.0	1493616	1499648	ShowFixation	ANTI	111	4	False	red	460	[405 885 405 675]	[1035 1515  405  675]
710.38	0.2	1499648	1499887	BlankScreen	ANTI	111	4	False	red	460	[405 885 405 675]	[1035 1515  405  675]
710.619	1.0	1499887	1500887	ELCue	ANTI	111	4	False	red	460	[405 885 405 675]	[1035 1515  405  675]
712.042	6.0	1501310	1507339	ShowFixation	VGS	112	4	False	lime	40	[ 90 570 405 675]	[1350 1830  405  675]
718.071	0.2	1507339	1507578	BlankScreen	VGS	112	4	False	lime	40	[ 90 570 405 675]	[1350 1830  405  675]
718.31	1.0	1507578	1508578	ELCue	VGS	112	4	False	lime	40	[ 90 570 405 675]	[1350 1830  405  675]
