participant_id	condition	accuracy	reaction_time
sub-24184	congruent	1	0.943
sub-24184	congruent	1	0.519
sub-24184	congruent	1	0.495
sub-24184	congruent	1	0.344
sub-24184	incongruent	1	1.210
sub-24184	incongruent	1	0.860
sub-24184	congruent	1	0.611
sub-24184	congruent	1	0.481
sub-24184	incongruent	1	0.973
sub-24184	incongruent	1	0.938
sub-24184	congruent	1	0.511
sub-24184	congruent	1	0.440
sub-24184	congruent	1	0.540
sub-24184	incongruent	1	0.836
sub-24184	congruent	1	0.562
sub-24184	incongruent	1	0.795
sub-24184	incongruent	1	1.271
sub-24184	incongruent	1	0.802
sub-24184	congruent	1	0.663
sub-24184	incongruent	1	0.730
sub-24184	incongruent	1	0.599
sub-24184	congruent	1	0.561
sub-24184	incongruent	1	0.725
sub-24184	incongruent	1	0.803
sub-24184	congruent	1	0.521
sub-24184	incongruent	1	0.785
sub-24184	congruent	1	0.481
sub-24184	incongruent	1	0.663
sub-24184	incongruent	1	0.619
sub-24184	incongruent	1	0.771
sub-24184	incongruent	1	0.673
sub-24184	incongruent	1	0.963
sub-24184	congruent	1	0.764
sub-24184	congruent	1	0.555
sub-24184	congruent	1	0.517
sub-24184	congruent	1	0.747
sub-24184	congruent	1	0.559
sub-24184	incongruent	1	0.725
sub-24184	incongruent	1	0.711
sub-24184	incongruent	1	0.763
sub-24184	incongruent	1	0.593
sub-24184	incongruent	1	0.821
sub-24184	congruent	1	0.753
sub-24184	incongruent	1	0.722
sub-24184	incongruent	1	0.652
sub-24184	incongruent	1	0.543
sub-24184	congruent	1	0.797
sub-24184	congruent	1	0.520
sub-24184	incongruent	1	0.643
sub-24184	congruent	1	0.659
sub-24184	congruent	1	0.474
sub-24184	congruent	1	0.480
sub-24184	congruent	1	0.443
sub-24184	congruent	1	0.466
sub-24184	congruent	1	0.471
sub-24184	incongruent	1	0.728
sub-24184	incongruent	1	0.635
sub-24184	congruent	1	0.440
sub-24184	congruent	1	0.493
sub-24184	incongruent	1	0.590
sub-24184	incongruent	1	0.689
sub-24184	congruent	1	0.510
sub-24184	congruent	1	0.394
sub-24184	incongruent	1	0.695
sub-24184	congruent	1	0.466
sub-24184	incongruent	0	0.377
sub-24184	incongruent	1	1.086
sub-24184	incongruent	1	0.596
sub-24184	incongruent	1	1.155
sub-24184	congruent	1	0.685
sub-24184	incongruent	1	0.556
sub-24184	congruent	1	0.544
sub-24184	incongruent	1	0.653
sub-24184	congruent	1	0.624
sub-24184	congruent	1	0.677
sub-24184	incongruent	1	1.026
sub-24184	incongruent	1	0.793
sub-24184	congruent	1	0.521
sub-24184	congruent	1	0.561
sub-24184	incongruent	1	0.941
sub-24184	incongruent	1	0.656
sub-24184	congruent	1	0.518
sub-24184	incongruent	1	1.097
sub-24184	congruent	1	0.714
sub-24184	congruent	1	0.558
sub-24184	incongruent	1	0.749
sub-24184	incongruent	1	0.707
sub-24184	incongruent	1	0.562
sub-24184	congruent	1	0.591
sub-24184	incongruent	1	0.775
sub-24184	congruent	1	0.596
sub-24184	incongruent	1	0.636
sub-24184	incongruent	1	0.951
sub-24184	congruent	1	0.573
sub-24184	incongruent	1	0.705
sub-24184	congruent	1	0.528
sub-24184	congruent	1	0.485
sub-24184	congruent	1	0.520
sub-24184	incongruent	0	0.630
sub-24184	congruent	1	0.743
sub-24184	congruent	1	0.781
sub-24184	congruent	1	0.664
sub-24184	incongruent	1	1.486
sub-24184	incongruent	1	0.755
sub-24184	congruent	1	0.630
sub-24184	congruent	1	0.571
sub-24184	incongruent	1	0.685
sub-24184	congruent	1	0.740
sub-24184	congruent	1	0.628
sub-24184	incongruent	1	1.483
sub-24184	incongruent	1	0.705
sub-24184	incongruent	1	0.858
sub-24184	congruent	1	0.621
sub-24184	incongruent	1	0.729
sub-24184	incongruent	0	1.086
sub-24184	congruent	1	0.702
sub-24184	congruent	1	0.598
sub-24184	incongruent	1	1.491
sub-24184	congruent	1	0.811
sub-24184	congruent	1	0.735
sub-24184	congruent	1	0.621
sub-24184	congruent	1	0.520
sub-24184	congruent	1	0.400
sub-24184	congruent	1	0.369
sub-24184	incongruent	0	0.538
sub-24184	incongruent	1	0.769
sub-24184	congruent	1	0.469
sub-24184	incongruent	1	0.730
sub-24184	congruent	1	0.479
sub-24184	congruent	1	0.421
sub-24184	incongruent	1	0.620
sub-24184	incongruent	0	0.443
sub-24184	congruent	1	0.444
sub-24184	incongruent	0	0.502
sub-24184	congruent	1	0.600
sub-24184	congruent	1	0.434
sub-24184	congruent	1	0.484
sub-24184	incongruent	1	0.739
sub-24184	incongruent	1	0.488
sub-24184	incongruent	1	0.684
sub-24184	incongruent	1	0.901
sub-24184	incongruent	1	0.795
sub-24184	congruent	1	0.721
sub-24184	congruent	1	0.507
sub-24184	incongruent	1	0.681
sub-24184	congruent	1	0.516
sub-24184	congruent	1	0.478
sub-24184	incongruent	1	0.633
sub-24184	incongruent	1	0.642
sub-24184	incongruent	1	0.711
sub-24184	congruent	1	0.854
sub-24184	congruent	1	0.741
sub-24184	congruent	1	0.548
sub-24184	congruent	1	0.478
sub-24184	incongruent	1	0.822
sub-24184	incongruent	1	1.080
sub-24184	congruent	1	0.467
sub-24184	incongruent	1	0.705
sub-24184	congruent	1	0.532
sub-24184	incongruent	1	0.665
sub-24184	congruent	1	0.541
sub-24184	incongruent	1	0.616
sub-24184	congruent	1	0.737
sub-24184	incongruent	1	0.574
sub-24184	congruent	1	0.590
sub-24184	incongruent	1	0.880
sub-24184	incongruent	1	0.661
sub-24184	congruent	1	0.520
sub-24184	incongruent	1	0.658
sub-24184	congruent	1	0.488
sub-24184	congruent	1	0.495
sub-24184	incongruent	1	0.772
sub-24184	congruent	1	0.636
sub-24184	incongruent	1	0.605
sub-24184	incongruent	1	0.806
sub-24184	incongruent	1	0.694
sub-24184	incongruent	1	0.596
sub-24184	incongruent	1	1.056
sub-24184	congruent	1	0.550
sub-24184	congruent	1	0.479
sub-24184	congruent	1	0.566
sub-24184	incongruent	1	0.476
sub-24184	incongruent	1	0.531
sub-24184	congruent	1	0.499
sub-24184	incongruent	1	0.989
sub-24184	congruent	1	0.470
sub-24184	congruent	1	0.604
sub-24184	congruent	1	0.480
sub-24184	incongruent	1	0.680
sub-24184	incongruent	1	0.795
sub-24184	congruent	1	0.517
sub-24184	incongruent	1	0.709
sub-24184	congruent	1	0.423
sub-24184	incongruent	1	0.756
sub-24184	incongruent	1	0.798
sub-24184	incongruent	1	0.745
sub-24184	congruent	1	0.539
sub-24184	incongruent	1	0.544
sub-24184	incongruent	1	0.533
sub-24184	congruent	1	0.590
sub-24184	congruent	1	0.483
sub-24184	incongruent	1	0.883
sub-24184	congruent	1	0.736
sub-24184	congruent	1	0.531
sub-24184	congruent	1	0.704
sub-24184	incongruent	1	1.012
sub-24184	congruent	1	1.184
sub-24184	congruent	1	0.378
sub-24184	incongruent	1	0.620
sub-24184	incongruent	1	1.175
sub-24184	incongruent	1	1.036
sub-24184	incongruent	1	0.733
sub-24184	incongruent	1	0.534
sub-24184	incongruent	1	0.665
sub-24184	congruent	1	0.508
sub-24184	congruent	1	0.607
sub-24184	congruent	1	0.483
sub-24184	incongruent	1	0.693
sub-24184	congruent	1	0.479
sub-24184	congruent	1	0.566
sub-24184	congruent	1	0.563
sub-24184	incongruent	1	0.600
sub-24184	congruent	1	1.275
sub-24184	congruent	1	0.470
sub-24184	incongruent	1	0.664
sub-24184	incongruent	1	0.785
sub-24184	incongruent	1	0.827
sub-24184	incongruent	1	0.596
sub-24184	incongruent	1	0.705
sub-24184	incongruent	1	0.835
sub-24184	congruent	1	0.836
sub-24184	congruent	1	0.659
sub-24184	incongruent	1	0.713
sub-24184	incongruent	1	0.762
sub-24184	congruent	1	0.503
sub-24184	incongruent	1	0.820
sub-24184	congruent	1	0.522
sub-24184	congruent	1	0.451
sub-24184	congruent	1	0.480
sub-24184	congruent	1	0.604
