onset	duration	startTime	stopTime	eventIdentifier	trial_type	trial_number	block_number	is_practice	fixation_color	cue_side	aoi_correct	aoi_incorrect
0.152	2.0	582374	584399	ShowFixation	ANTI	1	1	True	red	40	[1350 1830  405  675]	[ 90 570 405 675]
2.177	0.2	584399	584635	BlankScreen	ANTI	1	1	True	red	40	[1350 1830  405  675]	[ 90 570 405 675]
2.413	1.0	584635	585675	ELCue	ANTI	1	1	True	red	40	[1350 1830  405  675]	[ 90 570 405 675]
3.869	6.0	586091	592720	ShowFixation	VGS	2	1	True	lime	600	[1350 1830  405  675]	[ 90 570 405 675]
10.498	0.2	592720	592959	BlankScreen	VGS	2	1	True	lime	600	[1350 1830  405  675]	[ 90 570 405 675]
10.737	1.0	592959	594000	ELCue	VGS	2	1	True	lime	600	[1350 1830  405  675]	[ 90 570 405 675]
12.199	2.0	594421	597045	ShowFixation	ANTI	3	1	True	red	180	[1035 1515  405  675]	[405 885 405 675]
14.823	0.2	597045	597280	BlankScreen	ANTI	3	1	True	red	180	[1035 1515  405  675]	[405 885 405 675]
15.058	1.0	597280	598317	ELCue	ANTI	3	1	True	red	180	[1035 1515  405  675]	[405 885 405 675]
16.51	2.0	598732	601366	ShowFixation	VGS	4	1	True	lime	600	[1350 1830  405  675]	[ 90 570 405 675]
19.144	0.2	601366	601601	BlankScreen	VGS	4	1	True	lime	600	[1350 1830  405  675]	[ 90 570 405 675]
19.379	1.0	601601	602641	ELCue	VGS	4	1	True	lime	600	[1350 1830  405  675]	[ 90 570 405 675]
20.844	6.0	603066	609687	ShowFixation	ANTI	5	1	True	red	40	[1350 1830  405  675]	[ 90 570 405 675]
27.465	0.2	609687	609926	BlankScreen	ANTI	5	1	True	red	40	[1350 1830  405  675]	[ 90 570 405 675]
27.704	1.0	609926	610967	ELCue	ANTI	5	1	True	red	40	[1350 1830  405  675]	[ 90 570 405 675]
29.163	2.0	611385	614012	ShowFixation	VGS	6	1	True	lime	180	[405 885 405 675]	[1035 1515  405  675]
31.79	0.2	614012	614247	BlankScreen	VGS	6	1	True	lime	180	[405 885 405 675]	[1035 1515  405  675]
32.025	1.0	614247	615287	ELCue	VGS	6	1	True	lime	180	[405 885 405 675]	[1035 1515  405  675]
33.481	6.0	615703	622316	ShowFixation	VGS	7	1	True	lime	40	[ 90 570 405 675]	[1350 1830  405  675]
40.094	0.2	622316	622555	BlankScreen	VGS	7	1	True	lime	40	[ 90 570 405 675]	[1350 1830  405  675]
40.333	1.0	622555	623595	ELCue	VGS	7	1	True	lime	40	[ 90 570 405 675]	[1350 1830  405  675]
41.79	6.0	624012	630624	ShowFixation	VGS	8	1	True	lime	180	[405 885 405 675]	[1035 1515  405  675]
48.402	0.2	630624	630863	BlankScreen	VGS	8	1	True	lime	180	[405 885 405 675]	[1035 1515  405  675]
48.641	1.0	630863	631904	ELCue	VGS	8	1	True	lime	180	[405 885 405 675]	[1035 1515  405  675]
50.1	2.0	632322	634949	ShowFixation	VGS	9	1	True	lime	460	[1035 1515  405  675]	[405 885 405 675]
52.727	0.2	634949	635184	BlankScreen	VGS	9	1	True	lime	460	[1035 1515  405  675]	[405 885 405 675]
52.962	1.0	635184	636225	ELCue	VGS	9	1	True	lime	460	[1035 1515  405  675]	[405 885 405 675]
54.423	2.0	636645	639270	ShowFixation	ANTI	10	1	True	red	600	[ 90 570 405 675]	[1350 1830  405  675]
57.048	0.2	639270	639505	BlankScreen	ANTI	10	1	True	red	600	[ 90 570 405 675]	[1350 1830  405  675]
57.283	1.0	639505	640546	ELCue	ANTI	10	1	True	red	600	[ 90 570 405 675]	[1350 1830  405  675]
58.744	2.0	640966	643574	ShowFixation	ANTI	11	1	True	red	460	[405 885 405 675]	[1035 1515  405  675]
61.352	0.2	643574	643793	BlankScreen	ANTI	11	1	True	red	460	[405 885 405 675]	[1035 1515  405  675]
61.571	1.0	643793	644816	ELCue	ANTI	11	1	True	red	460	[405 885 405 675]	[1035 1515  405  675]
63.009	6.0	645231	651862	ShowFixation	ANTI	12	1	True	red	600	[ 90 570 405 675]	[1350 1830  405  675]
69.64	0.2	651862	652101	BlankScreen	ANTI	12	1	True	red	600	[ 90 570 405 675]	[1350 1830  405  675]
69.879	1.0	652101	653141	ELCue	ANTI	12	1	True	red	600	[ 90 570 405 675]	[1350 1830  405  675]
71.338	2.0	653560	656170	ShowFixation	VGS	13	1	True	lime	40	[ 90 570 405 675]	[1350 1830  405  675]
73.948	0.2	656170	656389	BlankScreen	VGS	13	1	True	lime	40	[ 90 570 405 675]	[1350 1830  405  675]
74.167	1.0	656389	657412	ELCue	VGS	13	1	True	lime	40	[ 90 570 405 675]	[1350 1830  405  675]
75.608	6.0	657830	664458	ShowFixation	ANTI	14	1	True	red	460	[405 885 405 675]	[1035 1515  405  675]
82.236	0.2	664458	664697	BlankScreen	ANTI	14	1	True	red	460	[405 885 405 675]	[1035 1515  405  675]
82.475	1.0	664697	665738	ELCue	ANTI	14	1	True	red	460	[405 885 405 675]	[1035 1515  405  675]
83.931	6.0	666153	672782	ShowFixation	ANTI	15	1	True	red	180	[1035 1515  405  675]	[405 885 405 675]
90.56	0.2	672782	673022	BlankScreen	ANTI	15	1	True	red	180	[1035 1515  405  675]	[405 885 405 675]
90.8	1.0	673022	674063	ELCue	ANTI	15	1	True	red	180	[1035 1515  405  675]	[405 885 405 675]
92.261	6.0	674483	681107	ShowFixation	VGS	16	1	True	lime	460	[1035 1515  405  675]	[405 885 405 675]
98.885	0.2	681107	681347	BlankScreen	VGS	16	1	True	lime	460	[1035 1515  405  675]	[405 885 405 675]
99.125	1.0	681347	682387	ELCue	VGS	16	1	True	lime	460	[1035 1515  405  675]	[405 885 405 675]
108.253	2.0	690475	692506	ShowFixation	VGS	17	2	False	lime	40	[ 90 570 405 675]	[1350 1830  405  675]
110.284	0.2	692506	692741	BlankScreen	VGS	17	2	False	lime	40	[ 90 570 405 675]	[1350 1830  405  675]
110.519	1.0	692741	693741	ELCue	VGS	17	2	False	lime	40	[ 90 570 405 675]	[1350 1830  405  675]
111.946	2.0	694168	696193	ShowFixation	ANTI	18	2	False	red	180	[1035 1515  405  675]	[405 885 405 675]
113.971	0.2	696193	696428	BlankScreen	ANTI	18	2	False	red	180	[1035 1515  405  675]	[405 885 405 675]
114.206	1.0	696428	697428	ELCue	ANTI	18	2	False	red	180	[1035 1515  405  675]	[405 885 405 675]
115.628	2.0	697850	699880	ShowFixation	VGS	19	2	False	lime	460	[1035 1515  405  675]	[405 885 405 675]
117.658	0.2	699880	700115	BlankScreen	VGS	19	2	False	lime	460	[1035 1515  405  675]	[405 885 405 675]
117.893	1.0	700115	701115	ELCue	VGS	19	2	False	lime	460	[1035 1515  405  675]	[405 885 405 675]
119.314	6.0	701536	707567	ShowFixation	ANTI	20	2	False	red	180	[1035 1515  405  675]	[405 885 405 675]
125.345	0.2	707567	707806	BlankScreen	ANTI	20	2	False	red	180	[1035 1515  405  675]	[405 885 405 675]
125.584	1.0	707806	708806	ELCue	ANTI	20	2	False	red	180	[1035 1515  405  675]	[405 885 405 675]
127.002	6.0	709224	715259	ShowFixation	VGS	21	2	False	lime	600	[1350 1830  405  675]	[ 90 570 405 675]
133.037	0.2	715259	715498	BlankScreen	VGS	21	2	False	lime	600	[1350 1830  405  675]	[ 90 570 405 675]
133.276	1.0	715498	716498	ELCue	VGS	21	2	False	lime	600	[1350 1830  405  675]	[ 90 570 405 675]
134.7	6.0	716922	722950	ShowFixation	VGS	22	2	False	lime	460	[1035 1515  405  675]	[405 885 405 675]
140.728	0.2	722950	723189	BlankScreen	VGS	22	2	False	lime	460	[1035 1515  405  675]	[405 885 405 675]
140.967	1.0	723189	724189	ELCue	VGS	22	2	False	lime	460	[1035 1515  405  675]	[405 885 405 675]
142.386	6.0	724608	730640	ShowFixation	VGS	23	2	False	lime	40	[ 90 570 405 675]	[1350 1830  405  675]
148.418	0.2	730640	730880	BlankScreen	VGS	23	2	False	lime	40	[ 90 570 405 675]	[1350 1830  405  675]
148.658	1.0	730880	731880	ELCue	VGS	23	2	False	lime	40	[ 90 570 405 675]	[1350 1830  405  675]
150.08	2.0	732302	734331	ShowFixation	ANTI	24	2	False	red	460	[405 885 405 675]	[1035 1515  405  675]
152.109	0.2	734331	734567	BlankScreen	ANTI	24	2	False	red	460	[405 885 405 675]	[1035 1515  405  675]
152.345	1.0	734567	735567	ELCue	ANTI	24	2	False	red	460	[405 885 405 675]	[1035 1515  405  675]
153.764	2.0	735986	738018	ShowFixation	ANTI	25	2	False	red	180	[1035 1515  405  675]	[405 885 405 675]
155.796	0.2	738018	738254	BlankScreen	ANTI	25	2	False	red	180	[1035 1515  405  675]	[405 885 405 675]
156.032	1.0	738254	739254	ELCue	ANTI	25	2	False	red	180	[1035 1515  405  675]	[405 885 405 675]
157.452	6.0	739674	745705	ShowFixation	VGS	26	2	False	lime	600	[1350 1830  405  675]	[ 90 570 405 675]
163.483	0.2	745705	745945	BlankScreen	VGS	26	2	False	lime	600	[1350 1830  405  675]	[ 90 570 405 675]
163.723	1.0	745945	746945	ELCue	VGS	26	2	False	lime	600	[1350 1830  405  675]	[ 90 570 405 675]
165.143	2.0	747365	749396	ShowFixation	VGS	27	2	False	lime	600	[1350 1830  405  675]	[ 90 570 405 675]
167.174	0.2	749396	749632	BlankScreen	VGS	27	2	False	lime	600	[1350 1830  405  675]	[ 90 570 405 675]
167.41	1.0	749632	750632	ELCue	VGS	27	2	False	lime	600	[1350 1830  405  675]	[ 90 570 405 675]
168.828	6.0	751050	757083	ShowFixation	VGS	28	2	False	lime	180	[405 885 405 675]	[1035 1515  405  675]
174.861	0.2	757083	757323	BlankScreen	VGS	28	2	False	lime	180	[405 885 405 675]	[1035 1515  405  675]
175.101	1.0	757323	758323	ELCue	VGS	28	2	False	lime	180	[405 885 405 675]	[1035 1515  405  675]
176.504	6.0	758726	764757	ShowFixation	ANTI	29	2	False	red	180	[1035 1515  405  675]	[405 885 405 675]
182.535	0.2	764757	764997	BlankScreen	ANTI	29	2	False	red	180	[1035 1515  405  675]	[405 885 405 675]
182.775	1.0	764997	765997	ELCue	ANTI	29	2	False	red	180	[1035 1515  405  675]	[405 885 405 675]
184.197	6.0	766419	772448	ShowFixation	ANTI	30	2	False	red	460	[405 885 405 675]	[1035 1515  405  675]
190.226	0.2	772448	772688	BlankScreen	ANTI	30	2	False	red	460	[405 885 405 675]	[1035 1515  405  675]
190.466	1.0	772688	773688	ELCue	ANTI	30	2	False	red	460	[405 885 405 675]	[1035 1515  405  675]
191.89	6.0	774112	780139	ShowFixation	VGS	31	2	False	lime	460	[1035 1515  405  675]	[405 885 405 675]
197.917	0.2	780139	780379	BlankScreen	VGS	31	2	False	lime	460	[1035 1515  405  675]	[405 885 405 675]
198.157	1.0	780379	781379	ELCue	VGS	31	2	False	lime	460	[1035 1515  405  675]	[405 885 405 675]
199.58	2.0	781802	783830	ShowFixation	VGS	32	2	False	lime	40	[ 90 570 405 675]	[1350 1830  405  675]
201.608	0.2	783830	784066	BlankScreen	VGS	32	2	False	lime	40	[ 90 570 405 675]	[1350 1830  405  675]
201.844	1.0	784066	785066	ELCue	VGS	32	2	False	lime	40	[ 90 570 405 675]	[1350 1830  405  675]
203.263	6.0	785485	791517	ShowFixation	VGS	33	2	False	lime	40	[ 90 570 405 675]	[1350 1830  405  675]
209.295	0.2	791517	791756	BlankScreen	VGS	33	2	False	lime	40	[ 90 570 405 675]	[1350 1830  405  675]
209.534	1.0	791756	792756	ELCue	VGS	33	2	False	lime	40	[ 90 570 405 675]	[1350 1830  405  675]
210.957	2.0	793179	795208	ShowFixation	VGS	34	2	False	lime	180	[405 885 405 675]	[1035 1515  405  675]
212.986	0.2	795208	795443	BlankScreen	VGS	34	2	False	lime	180	[405 885 405 675]	[1035 1515  405  675]
213.221	1.0	795443	796443	ELCue	VGS	34	2	False	lime	180	[405 885 405 675]	[1035 1515  405  675]
214.626	6.0	796848	802878	ShowFixation	ANTI	35	2	False	red	600	[ 90 570 405 675]	[1350 1830  405  675]
220.656	0.2	802878	803118	BlankScreen	ANTI	35	2	False	red	600	[ 90 570 405 675]	[1350 1830  405  675]
220.896	1.0	803118	804118	ELCue	ANTI	35	2	False	red	600	[ 90 570 405 675]	[1350 1830  405  675]
222.318	2.0	804540	806569	ShowFixation	VGS	36	2	False	lime	600	[1350 1830  405  675]	[ 90 570 405 675]
224.347	0.2	806569	806805	BlankScreen	VGS	36	2	False	lime	600	[1350 1830  405  675]	[ 90 570 405 675]
224.583	1.0	806805	807805	ELCue	VGS	36	2	False	lime	600	[1350 1830  405  675]	[ 90 570 405 675]
226.003	6.0	808225	814256	ShowFixation	ANTI	37	2	False	red	40	[1350 1830  405  675]	[ 90 570 405 675]
232.034	0.2	814256	814496	BlankScreen	ANTI	37	2	False	red	40	[1350 1830  405  675]	[ 90 570 405 675]
232.274	1.0	814496	815496	ELCue	ANTI	37	2	False	red	40	[1350 1830  405  675]	[ 90 570 405 675]
233.696	6.0	815918	821947	ShowFixation	ANTI	38	2	False	red	600	[ 90 570 405 675]	[1350 1830  405  675]
239.725	0.2	821947	822186	BlankScreen	ANTI	38	2	False	red	600	[ 90 570 405 675]	[1350 1830  405  675]
239.964	1.0	822186	823186	ELCue	ANTI	38	2	False	red	600	[ 90 570 405 675]	[1350 1830  405  675]
241.387	6.0	823609	829638	ShowFixation	ANTI	39	2	False	red	460	[405 885 405 675]	[1035 1515  405  675]
247.416	0.2	829638	829877	BlankScreen	ANTI	39	2	False	red	460	[405 885 405 675]	[1035 1515  405  675]
247.656	1.0	829878	830878	ELCue	ANTI	39	2	False	red	460	[405 885 405 675]	[1035 1515  405  675]
249.077	2.0	831299	833329	ShowFixation	VGS	40	2	False	lime	180	[405 885 405 675]	[1035 1515  405  675]
251.107	0.2	833329	833564	BlankScreen	VGS	40	2	False	lime	180	[405 885 405 675]	[1035 1515  405  675]
251.342	1.0	833564	834564	ELCue	VGS	40	2	False	lime	180	[405 885 405 675]	[1035 1515  405  675]
252.765	2.0	834987	837016	ShowFixation	ANTI	41	2	False	red	600	[ 90 570 405 675]	[1350 1830  405  675]
254.794	0.2	837016	837251	BlankScreen	ANTI	41	2	False	red	600	[ 90 570 405 675]	[1350 1830  405  675]
255.029	1.0	837251	838251	ELCue	ANTI	41	2	False	red	600	[ 90 570 405 675]	[1350 1830  405  675]
256.452	6.0	838674	844703	ShowFixation	VGS	42	2	False	lime	180	[405 885 405 675]	[1035 1515  405  675]
262.481	0.2	844703	844943	BlankScreen	VGS	42	2	False	lime	180	[405 885 405 675]	[1035 1515  405  675]
262.721	1.0	844943	845943	ELCue	VGS	42	2	False	lime	180	[405 885 405 675]	[1035 1515  405  675]
264.142	2.0	846364	848395	ShowFixation	ANTI	43	2	False	red	40	[1350 1830  405  675]	[ 90 570 405 675]
266.173	0.2	848395	848630	BlankScreen	ANTI	43	2	False	red	40	[1350 1830  405  675]	[ 90 570 405 675]
266.408	1.0	848630	849630	ELCue	ANTI	43	2	False	red	40	[1350 1830  405  675]	[ 90 570 405 675]
267.829	6.0	850051	856081	ShowFixation	ANTI	44	2	False	red	40	[1350 1830  405  675]	[ 90 570 405 675]
273.859	0.2	856081	856320	BlankScreen	ANTI	44	2	False	red	40	[1350 1830  405  675]	[ 90 570 405 675]
274.099	1.0	856321	857321	ELCue	ANTI	44	2	False	red	40	[1350 1830  405  675]	[ 90 570 405 675]
275.516	2.0	857738	859773	ShowFixation	ANTI	45	2	False	red	460	[405 885 405 675]	[1035 1515  405  675]
277.551	0.2	859773	860008	BlankScreen	ANTI	45	2	False	red	460	[405 885 405 675]	[1035 1515  405  675]
277.786	1.0	860008	861008	ELCue	ANTI	45	2	False	red	460	[405 885 405 675]	[1035 1515  405  675]
279.209	2.0	861431	863460	ShowFixation	ANTI	46	2	False	red	600	[ 90 570 405 675]	[1350 1830  405  675]
281.238	0.2	863460	863695	BlankScreen	ANTI	46	2	False	red	600	[ 90 570 405 675]	[1350 1830  405  675]
281.473	1.0	863695	864695	ELCue	ANTI	46	2	False	red	600	[ 90 570 405 675]	[1350 1830  405  675]
282.896	2.0	865118	867147	ShowFixation	VGS	47	2	False	lime	460	[1035 1515  405  675]	[405 885 405 675]
284.925	0.2	867147	867382	BlankScreen	VGS	47	2	False	lime	460	[1035 1515  405  675]	[405 885 405 675]
285.16	1.0	867382	868382	ELCue	VGS	47	2	False	lime	460	[1035 1515  405  675]	[405 885 405 675]
286.581	2.0	868803	870834	ShowFixation	ANTI	48	2	False	red	40	[1350 1830  405  675]	[ 90 570 405 675]
288.612	0.2	870834	871069	BlankScreen	ANTI	48	2	False	red	40	[1350 1830  405  675]	[ 90 570 405 675]
288.847	1.0	871069	872069	ELCue	ANTI	48	2	False	red	40	[1350 1830  405  675]	[ 90 570 405 675]
321.098	6.0	903320	909351	ShowFixation	ANTI	49	3	False	red	180	[1035 1515  405  675]	[405 885 405 675]
327.129	0.2	909351	909590	BlankScreen	ANTI	49	3	False	red	180	[1035 1515  405  675]	[405 885 405 675]
327.368	1.0	909590	910590	ELCue	ANTI	49	3	False	red	180	[1035 1515  405  675]	[405 885 405 675]
328.786	2.0	911008	913042	ShowFixation	VGS	50	3	False	lime	460	[1035 1515  405  675]	[405 885 405 675]
330.82	0.2	913042	913277	BlankScreen	VGS	50	3	False	lime	460	[1035 1515  405  675]	[405 885 405 675]
331.055	1.0	913277	914277	ELCue	VGS	50	3	False	lime	460	[1035 1515  405  675]	[405 885 405 675]
332.478	2.0	914700	916729	ShowFixation	ANTI	51	3	False	red	460	[405 885 405 675]	[1035 1515  405  675]
334.507	0.2	916729	916964	BlankScreen	ANTI	51	3	False	red	460	[405 885 405 675]	[1035 1515  405  675]
334.742	1.0	916964	917964	ELCue	ANTI	51	3	False	red	460	[405 885 405 675]	[1035 1515  405  675]
336.16	6.0	918382	924416	ShowFixation	ANTI	52	3	False	red	180	[1035 1515  405  675]	[405 885 405 675]
342.194	0.2	924416	924655	BlankScreen	ANTI	52	3	False	red	180	[1035 1515  405  675]	[405 885 405 675]
342.433	1.0	924655	925655	ELCue	ANTI	52	3	False	red	180	[1035 1515  405  675]	[405 885 405 675]
343.838	6.0	926060	932090	ShowFixation	ANTI	53	3	False	red	40	[1350 1830  405  675]	[ 90 570 405 675]
349.868	0.2	932090	932329	BlankScreen	ANTI	53	3	False	red	40	[1350 1830  405  675]	[ 90 570 405 675]
350.107	1.0	932329	933329	ELCue	ANTI	53	3	False	red	40	[1350 1830  405  675]	[ 90 570 405 675]
351.53	6.0	933752	939781	ShowFixation	ANTI	54	3	False	red	600	[ 90 570 405 675]	[1350 1830  405  675]
357.559	0.2	939781	940020	BlankScreen	ANTI	54	3	False	red	600	[ 90 570 405 675]	[1350 1830  405  675]
357.798	1.0	940020	941020	ELCue	ANTI	54	3	False	red	600	[ 90 570 405 675]	[1350 1830  405  675]
359.221	6.0	941443	947472	ShowFixation	VGS	55	3	False	lime	40	[ 90 570 405 675]	[1350 1830  405  675]
365.25	0.2	947472	947711	BlankScreen	VGS	55	3	False	lime	40	[ 90 570 405 675]	[1350 1830  405  675]
365.489	1.0	947711	948711	ELCue	VGS	55	3	False	lime	40	[ 90 570 405 675]	[1350 1830  405  675]
366.913	6.0	949135	955163	ShowFixation	VGS	56	3	False	lime	600	[1350 1830  405  675]	[ 90 570 405 675]
372.941	0.2	955163	955402	BlankScreen	VGS	56	3	False	lime	600	[1350 1830  405  675]	[ 90 570 405 675]
373.18	1.0	955402	956402	ELCue	VGS	56	3	False	lime	600	[1350 1830  405  675]	[ 90 570 405 675]
374.598	2.0	956820	958854	ShowFixation	ANTI	57	3	False	red	40	[1350 1830  405  675]	[ 90 570 405 675]
376.632	0.2	958854	959089	BlankScreen	ANTI	57	3	False	red	40	[1350 1830  405  675]	[ 90 570 405 675]
376.867	1.0	959089	960089	ELCue	ANTI	57	3	False	red	40	[1350 1830  405  675]	[ 90 570 405 675]
378.289	2.0	960511	962541	ShowFixation	ANTI	58	3	False	red	600	[ 90 570 405 675]	[1350 1830  405  675]
380.319	0.2	962541	962776	BlankScreen	ANTI	58	3	False	red	600	[ 90 570 405 675]	[1350 1830  405  675]
380.554	1.0	962776	963776	ELCue	ANTI	58	3	False	red	600	[ 90 570 405 675]	[1350 1830  405  675]
381.971	2.0	964193	966228	ShowFixation	ANTI	59	3	False	red	180	[1035 1515  405  675]	[405 885 405 675]
384.006	0.2	966228	966463	BlankScreen	ANTI	59	3	False	red	180	[1035 1515  405  675]	[405 885 405 675]
384.241	1.0	966463	967463	ELCue	ANTI	59	3	False	red	180	[1035 1515  405  675]	[405 885 405 675]
385.665	2.0	967887	969915	ShowFixation	VGS	60	3	False	lime	40	[ 90 570 405 675]	[1350 1830  405  675]
387.693	0.2	969915	970150	BlankScreen	VGS	60	3	False	lime	40	[ 90 570 405 675]	[1350 1830  405  675]
387.928	1.0	970150	971150	ELCue	VGS	60	3	False	lime	40	[ 90 570 405 675]	[1350 1830  405  675]
389.348	6.0	971570	977602	ShowFixation	ANTI	61	3	False	red	40	[1350 1830  405  675]	[ 90 570 405 675]
395.38	0.2	977602	977841	BlankScreen	ANTI	61	3	False	red	40	[1350 1830  405  675]	[ 90 570 405 675]
395.619	1.0	977841	978841	ELCue	ANTI	61	3	False	red	40	[1350 1830  405  675]	[ 90 570 405 675]
397.044	2.0	979266	981293	ShowFixation	VGS	62	3	False	lime	600	[1350 1830  405  675]	[ 90 570 405 675]
399.071	0.2	981293	981528	BlankScreen	VGS	62	3	False	lime	600	[1350 1830  405  675]	[ 90 570 405 675]
399.306	1.0	981528	982528	ELCue	VGS	62	3	False	lime	600	[1350 1830  405  675]	[ 90 570 405 675]
400.69	2.0	982912	984946	ShowFixation	ANTI	63	3	False	red	600	[ 90 570 405 675]	[1350 1830  405  675]
402.724	0.2	984946	985182	BlankScreen	ANTI	63	3	False	red	600	[ 90 570 405 675]	[1350 1830  405  675]
402.961	1.0	985183	986183	ELCue	ANTI	63	3	False	red	600	[ 90 570 405 675]	[1350 1830  405  675]
404.381	2.0	986603	988633	ShowFixation	ANTI	64	3	False	red	40	[1350 1830  405  675]	[ 90 570 405 675]
406.411	0.2	988633	988869	BlankScreen	ANTI	64	3	False	red	40	[1350 1830  405  675]	[ 90 570 405 675]
406.647	1.0	988869	989869	ELCue	ANTI	64	3	False	red	40	[1350 1830  405  675]	[ 90 570 405 675]
408.067	6.0	990289	996320	ShowFixation	ANTI	65	3	False	red	460	[405 885 405 675]	[1035 1515  405  675]
414.098	0.2	996320	996560	BlankScreen	ANTI	65	3	False	red	460	[405 885 405 675]	[1035 1515  405  675]
414.338	1.0	996560	997560	ELCue	ANTI	65	3	False	red	460	[405 885 405 675]	[1035 1515  405  675]
415.727	2.0	997949	999978	ShowFixation	VGS	66	3	False	lime	180	[405 885 405 675]	[1035 1515  405  675]
417.757	0.2	999979	1000213	BlankScreen	VGS	66	3	False	lime	180	[405 885 405 675]	[1035 1515  405  675]
417.991	1.0	1000213	1001213	ELCue	VGS	66	3	False	lime	180	[405 885 405 675]	[1035 1515  405  675]
419.41	6.0	1001632	1007666	ShowFixation	VGS	67	3	False	lime	600	[1350 1830  405  675]	[ 90 570 405 675]
425.444	0.2	1007666	1007905	BlankScreen	VGS	67	3	False	lime	600	[1350 1830  405  675]	[ 90 570 405 675]
425.683	1.0	1007905	1008905	ELCue	VGS	67	3	False	lime	600	[1350 1830  405  675]	[ 90 570 405 675]
427.102	6.0	1009324	1015357	ShowFixation	VGS	68	3	False	lime	180	[405 885 405 675]	[1035 1515  405  675]
433.135	0.2	1015357	1015596	BlankScreen	VGS	68	3	False	lime	180	[405 885 405 675]	[1035 1515  405  675]
433.374	1.0	1015596	1016596	ELCue	VGS	68	3	False	lime	180	[405 885 405 675]	[1035 1515  405  675]
434.802	2.0	1017024	1019064	ShowFixation	VGS	69	3	False	lime	180	[405 885 405 675]	[1035 1515  405  675]
436.842	0.2	1019064	1019300	BlankScreen	VGS	69	3	False	lime	180	[405 885 405 675]	[1035 1515  405  675]
437.078	1.0	1019300	1020300	ELCue	VGS	69	3	False	lime	180	[405 885 405 675]	[1035 1515  405  675]
438.498	6.0	1020720	1026751	ShowFixation	ANTI	70	3	False	red	460	[405 885 405 675]	[1035 1515  405  675]
444.529	0.2	1026751	1026990	BlankScreen	ANTI	70	3	False	red	460	[405 885 405 675]	[1035 1515  405  675]
444.768	1.0	1026990	1027990	ELCue	ANTI	70	3	False	red	460	[405 885 405 675]	[1035 1515  405  675]
446.191	6.0	1028413	1034442	ShowFixation	VGS	71	3	False	lime	40	[ 90 570 405 675]	[1350 1830  405  675]
452.22	0.2	1034442	1034681	BlankScreen	VGS	71	3	False	lime	40	[ 90 570 405 675]	[1350 1830  405  675]
452.459	1.0	1034681	1035681	ELCue	VGS	71	3	False	lime	40	[ 90 570 405 675]	[1350 1830  405  675]
453.882	6.0	1036104	1042133	ShowFixation	ANTI	72	3	False	red	600	[ 90 570 405 675]	[1350 1830  405  675]
459.911	0.2	1042133	1042372	BlankScreen	ANTI	72	3	False	red	600	[ 90 570 405 675]	[1350 1830  405  675]
460.15	1.0	1042372	1043372	ELCue	ANTI	72	3	False	red	600	[ 90 570 405 675]	[1350 1830  405  675]
461.568	6.0	1043790	1049824	ShowFixation	VGS	73	3	False	lime	460	[1035 1515  405  675]	[405 885 405 675]
467.602	0.2	1049824	1050063	BlankScreen	VGS	73	3	False	lime	460	[1035 1515  405  675]	[405 885 405 675]
467.841	1.0	1050063	1051063	ELCue	VGS	73	3	False	lime	460	[1035 1515  405  675]	[405 885 405 675]
469.261	2.0	1051483	1053515	ShowFixation	ANTI	74	3	False	red	460	[405 885 405 675]	[1035 1515  405  675]
471.293	0.2	1053515	1053750	BlankScreen	ANTI	74	3	False	red	460	[405 885 405 675]	[1035 1515  405  675]
471.528	1.0	1053750	1054750	ELCue	ANTI	74	3	False	red	460	[405 885 405 675]	[1035 1515  405  675]
472.945	2.0	1055167	1057202	ShowFixation	ANTI	75	3	False	red	180	[1035 1515  405  675]	[405 885 405 675]
474.98	0.2	1057202	1057437	BlankScreen	ANTI	75	3	False	red	180	[1035 1515  405  675]	[405 885 405 675]
475.215	1.0	1057437	1058437	ELCue	ANTI	75	3	False	red	180	[1035 1515  405  675]	[405 885 405 675]
476.634	2.0	1058856	1060889	ShowFixation	VGS	76	3	False	lime	40	[ 90 570 405 675]	[1350 1830  405  675]
478.667	0.2	1060889	1061124	BlankScreen	VGS	76	3	False	lime	40	[ 90 570 405 675]	[1350 1830  405  675]
478.902	1.0	1061124	1062124	ELCue	VGS	76	3	False	lime	40	[ 90 570 405 675]	[1350 1830  405  675]
480.308	6.0	1062530	1068559	ShowFixation	VGS	77	3	False	lime	460	[1035 1515  405  675]	[405 885 405 675]
486.337	0.2	1068559	1068798	BlankScreen	VGS	77	3	False	lime	460	[1035 1515  405  675]	[405 885 405 675]
486.576	1.0	1068798	1069798	ELCue	VGS	77	3	False	lime	460	[1035 1515  405  675]	[405 885 405 675]
487.995	6.0	1070217	1076250	ShowFixation	VGS	78	3	False	lime	180	[405 885 405 675]	[1035 1515  405  675]
494.028	0.2	1076250	1076489	BlankScreen	VGS	78	3	False	lime	180	[405 885 405 675]	[1035 1515  405  675]
494.267	1.0	1076489	1077489	ELCue	VGS	78	3	False	lime	180	[405 885 405 675]	[1035 1515  405  675]
495.692	2.0	1077914	1079941	ShowFixation	VGS	79	3	False	lime	460	[1035 1515  405  675]	[405 885 405 675]
497.719	0.2	1079941	1080176	BlankScreen	VGS	79	3	False	lime	460	[1035 1515  405  675]	[405 885 405 675]
497.954	1.0	1080176	1081176	ELCue	VGS	79	3	False	lime	460	[1035 1515  405  675]	[405 885 405 675]
499.362	2.0	1081584	1083611	ShowFixation	VGS	80	3	False	lime	600	[1350 1830  405  675]	[ 90 570 405 675]
501.389	0.2	1083611	1083847	BlankScreen	VGS	80	3	False	lime	600	[1350 1830  405  675]	[ 90 570 405 675]
501.625	1.0	1083847	1084847	ELCue	VGS	80	3	False	lime	600	[1350 1830  405  675]	[ 90 570 405 675]
528.129	6.0	1110351	1116390	ShowFixation	VGS	81	4	False	lime	40	[ 90 570 405 675]	[1350 1830  405  675]
534.168	0.2	1116390	1116630	BlankScreen	VGS	81	4	False	lime	40	[ 90 570 405 675]	[1350 1830  405  675]
534.408	1.0	1116630	1117630	ELCue	VGS	81	4	False	lime	40	[ 90 570 405 675]	[1350 1830  405  675]
535.828	2.0	1118050	1120080	ShowFixation	VGS	82	4	False	lime	600	[1350 1830  405  675]	[ 90 570 405 675]
537.858	0.2	1120080	1120316	BlankScreen	VGS	82	4	False	lime	600	[1350 1830  405  675]	[ 90 570 405 675]
538.095	1.0	1120317	1121317	ELCue	VGS	82	4	False	lime	600	[1350 1830  405  675]	[ 90 570 405 675]
539.516	2.0	1121738	1123767	ShowFixation	ANTI	83	4	False	red	460	[405 885 405 675]	[1035 1515  405  675]
541.545	0.2	1123767	1124003	BlankScreen	ANTI	83	4	False	red	460	[405 885 405 675]	[1035 1515  405  675]
541.781	1.0	1124003	1125003	ELCue	ANTI	83	4	False	red	460	[405 885 405 675]	[1035 1515  405  675]
543.2	2.0	1125422	1127454	ShowFixation	VGS	84	4	False	lime	180	[405 885 405 675]	[1035 1515  405  675]
545.232	0.2	1127454	1127690	BlankScreen	VGS	84	4	False	lime	180	[405 885 405 675]	[1035 1515  405  675]
545.469	1.0	1127691	1128691	ELCue	VGS	84	4	False	lime	180	[405 885 405 675]	[1035 1515  405  675]
546.885	2.0	1129107	1131141	ShowFixation	VGS	85	4	False	lime	460	[1035 1515  405  675]	[405 885 405 675]
548.919	0.2	1131141	1131377	BlankScreen	VGS	85	4	False	lime	460	[1035 1515  405  675]	[405 885 405 675]
549.155	1.0	1131377	1132377	ELCue	VGS	85	4	False	lime	460	[1035 1515  405  675]	[405 885 405 675]
550.578	6.0	1132800	1138829	ShowFixation	VGS	86	4	False	lime	180	[405 885 405 675]	[1035 1515  405  675]
556.607	0.2	1138829	1139069	BlankScreen	VGS	86	4	False	lime	180	[405 885 405 675]	[1035 1515  405  675]
556.847	1.0	1139069	1140069	ELCue	VGS	86	4	False	lime	180	[405 885 405 675]	[1035 1515  405  675]
558.264	6.0	1140486	1146520	ShowFixation	VGS	87	4	False	lime	600	[1350 1830  405  675]	[ 90 570 405 675]
564.298	0.2	1146520	1146760	BlankScreen	VGS	87	4	False	lime	600	[1350 1830  405  675]	[ 90 570 405 675]
564.538	1.0	1146760	1147760	ELCue	VGS	87	4	False	lime	600	[1350 1830  405  675]	[ 90 570 405 675]
565.958	2.0	1148180	1150211	ShowFixation	VGS	88	4	False	lime	40	[ 90 570 405 675]	[1350 1830  405  675]
567.989	0.2	1150211	1150447	BlankScreen	VGS	88	4	False	lime	40	[ 90 570 405 675]	[1350 1830  405  675]
568.225	1.0	1150447	1151447	ELCue	VGS	88	4	False	lime	40	[ 90 570 405 675]	[1350 1830  405  675]
569.648	2.0	1151870	1153898	ShowFixation	ANTI	89	4	False	red	40	[1350 1830  405  675]	[ 90 570 405 675]
571.676	0.2	1153898	1154133	BlankScreen	ANTI	89	4	False	red	40	[1350 1830  405  675]	[ 90 570 405 675]
571.911	1.0	1154133	1155133	ELCue	ANTI	89	4	False	red	40	[1350 1830  405  675]	[ 90 570 405 675]
573.334	2.0	1155556	1157585	ShowFixation	ANTI	90	4	False	red	460	[405 885 405 675]	[1035 1515  405  675]
575.363	0.2	1157585	1157820	BlankScreen	ANTI	90	4	False	red	460	[405 885 405 675]	[1035 1515  405  675]
575.598	1.0	1157820	1158820	ELCue	ANTI	90	4	False	red	460	[405 885 405 675]	[1035 1515  405  675]
577.021	2.0	1159243	1161272	ShowFixation	ANTI	91	4	False	red	180	[1035 1515  405  675]	[405 885 405 675]
579.05	0.2	1161272	1161507	BlankScreen	ANTI	91	4	False	red	180	[1035 1515  405  675]	[405 885 405 675]
579.285	1.0	1161507	1162507	ELCue	ANTI	91	4	False	red	180	[1035 1515  405  675]	[405 885 405 675]
580.71	2.0	1162932	1164959	ShowFixation	ANTI	92	4	False	red	40	[1350 1830  405  675]	[ 90 570 405 675]
582.737	0.2	1164959	1165194	BlankScreen	ANTI	92	4	False	red	40	[1350 1830  405  675]	[ 90 570 405 675]
582.972	1.0	1165194	1166194	ELCue	ANTI	92	4	False	red	40	[1350 1830  405  675]	[ 90 570 405 675]
584.394	6.0	1166616	1172646	ShowFixation	VGS	93	4	False	lime	460	[1035 1515  405  675]	[405 885 405 675]
590.424	0.2	1172646	1172885	BlankScreen	VGS	93	4	False	lime	460	[1035 1515  405  675]	[405 885 405 675]
590.663	1.0	1172885	1173885	ELCue	VGS	93	4	False	lime	460	[1035 1515  405  675]	[405 885 405 675]
592.084	2.0	1174306	1176337	ShowFixation	ANTI	94	4	False	red	600	[ 90 570 405 675]	[1350 1830  405  675]
594.115	0.2	1176337	1176572	BlankScreen	ANTI	94	4	False	red	600	[ 90 570 405 675]	[1350 1830  405  675]
594.35	1.0	1176572	1177572	ELCue	ANTI	94	4	False	red	600	[ 90 570 405 675]	[1350 1830  405  675]
595.772	2.0	1177994	1180024	ShowFixation	VGS	95	4	False	lime	460	[1035 1515  405  675]	[405 885 405 675]
597.802	0.2	1180024	1180259	BlankScreen	VGS	95	4	False	lime	460	[1035 1515  405  675]	[405 885 405 675]
598.037	1.0	1180259	1181259	ELCue	VGS	95	4	False	lime	460	[1035 1515  405  675]	[405 885 405 675]
599.462	6.0	1181684	1187711	ShowFixation	ANTI	96	4	False	red	40	[1350 1830  405  675]	[ 90 570 405 675]
605.489	0.2	1187711	1187950	BlankScreen	ANTI	96	4	False	red	40	[1350 1830  405  675]	[ 90 570 405 675]
605.728	1.0	1187950	1188950	ELCue	ANTI	96	4	False	red	40	[1350 1830  405  675]	[ 90 570 405 675]
607.152	2.0	1189374	1191402	ShowFixation	VGS	97	4	False	lime	600	[1350 1830  405  675]	[ 90 570 405 675]
609.18	0.2	1191402	1191637	BlankScreen	VGS	97	4	False	lime	600	[1350 1830  405  675]	[ 90 570 405 675]
609.415	1.0	1191637	1192637	ELCue	VGS	97	4	False	lime	600	[1350 1830  405  675]	[ 90 570 405 675]
610.839	6.0	1193061	1199089	ShowFixation	VGS	98	4	False	lime	460	[1035 1515  405  675]	[405 885 405 675]
616.867	0.2	1199089	1199328	BlankScreen	VGS	98	4	False	lime	460	[1035 1515  405  675]	[405 885 405 675]
617.106	1.0	1199328	1200328	ELCue	VGS	98	4	False	lime	460	[1035 1515  405  675]	[405 885 405 675]
618.528	6.0	1200750	1206780	ShowFixation	ANTI	99	4	False	red	460	[405 885 405 675]	[1035 1515  405  675]
624.558	0.2	1206780	1207019	BlankScreen	ANTI	99	4	False	red	460	[405 885 405 675]	[1035 1515  405  675]
624.797	1.0	1207019	1208019	ELCue	ANTI	99	4	False	red	460	[405 885 405 675]	[1035 1515  405  675]
626.22	6.0	1208442	1214471	ShowFixation	ANTI	100	4	False	red	460	[405 885 405 675]	[1035 1515  405  675]
632.249	0.2	1214471	1214710	BlankScreen	ANTI	100	4	False	red	460	[405 885 405 675]	[1035 1515  405  675]
632.488	1.0	1214710	1215710	ELCue	ANTI	100	4	False	red	460	[405 885 405 675]	[1035 1515  405  675]
633.908	6.0	1216130	1222162	ShowFixation	VGS	101	4	False	lime	180	[405 885 405 675]	[1035 1515  405  675]
639.94	0.2	1222162	1222401	BlankScreen	VGS	101	4	False	lime	180	[405 885 405 675]	[1035 1515  405  675]
640.179	1.0	1222401	1223401	ELCue	VGS	101	4	False	lime	180	[405 885 405 675]	[1035 1515  405  675]
641.584	2.0	1223806	1225836	ShowFixation	ANTI	102	4	False	red	600	[ 90 570 405 675]	[1350 1830  405  675]
643.614	0.2	1225836	1226071	BlankScreen	ANTI	102	4	False	red	600	[ 90 570 405 675]	[1350 1830  405  675]
643.849	1.0	1226071	1227071	ELCue	ANTI	102	4	False	red	600	[ 90 570 405 675]	[1350 1830  405  675]
645.27	2.0	1227492	1229523	ShowFixation	ANTI	103	4	False	red	180	[1035 1515  405  675]	[405 885 405 675]
647.301	0.2	1229523	1229758	BlankScreen	ANTI	103	4	False	red	180	[1035 1515  405  675]	[405 885 405 675]
647.536	1.0	1229758	1230758	ELCue	ANTI	103	4	False	red	180	[1035 1515  405  675]	[405 885 405 675]
648.958	6.0	1231180	1237210	ShowFixation	ANTI	104	4	False	red	180	[1035 1515  405  675]	[405 885 405 675]
654.988	0.2	1237210	1237449	BlankScreen	ANTI	104	4	False	red	180	[1035 1515  405  675]	[405 885 405 675]
655.227	1.0	1237449	1238449	ELCue	ANTI	104	4	False	red	180	[1035 1515  405  675]	[405 885 405 675]
656.65	6.0	1238872	1244901	ShowFixation	ANTI	105	4	False	red	600	[ 90 570 405 675]	[1350 1830  405  675]
662.679	0.2	1244901	1245140	BlankScreen	ANTI	105	4	False	red	600	[ 90 570 405 675]	[1350 1830  405  675]
662.918	1.0	1245140	1246140	ELCue	ANTI	105	4	False	red	600	[ 90 570 405 675]	[1350 1830  405  675]
664.333	6.0	1246555	1252592	ShowFixation	ANTI	106	4	False	red	40	[1350 1830  405  675]	[ 90 570 405 675]
670.37	0.2	1252592	1252831	BlankScreen	ANTI	106	4	False	red	40	[1350 1830  405  675]	[ 90 570 405 675]
670.609	1.0	1252831	1253831	ELCue	ANTI	106	4	False	red	40	[1350 1830  405  675]	[ 90 570 405 675]
671.997	6.0	1254219	1260249	ShowFixation	ANTI	107	4	False	red	180	[1035 1515  405  675]	[405 885 405 675]
678.027	0.2	1260249	1260488	BlankScreen	ANTI	107	4	False	red	180	[1035 1515  405  675]	[405 885 405 675]
678.266	1.0	1260488	1261488	ELCue	ANTI	107	4	False	red	180	[1035 1515  405  675]	[405 885 405 675]
679.687	6.0	1261909	1267940	ShowFixation	VGS	108	4	False	lime	600	[1350 1830  405  675]	[ 90 570 405 675]
685.718	0.2	1267940	1268179	BlankScreen	VGS	108	4	False	lime	600	[1350 1830  405  675]	[ 90 570 405 675]
685.957	1.0	1268179	1269179	ELCue	VGS	108	4	False	lime	600	[1350 1830  405  675]	[ 90 570 405 675]
687.379	2.0	1269601	1271631	ShowFixation	VGS	109	4	False	lime	180	[405 885 405 675]	[1035 1515  405  675]
689.41	0.2	1271632	1271866	BlankScreen	VGS	109	4	False	lime	180	[405 885 405 675]	[1035 1515  405  675]
689.645	1.0	1271867	1272867	ELCue	VGS	109	4	False	lime	180	[405 885 405 675]	[1035 1515  405  675]
691.067	6.0	1273289	1279319	ShowFixation	ANTI	110	4	False	red	600	[ 90 570 405 675]	[1350 1830  405  675]
697.097	0.2	1279319	1279558	BlankScreen	ANTI	110	4	False	red	600	[ 90 570 405 675]	[1350 1830  405  675]
697.336	1.0	1279558	1280558	ELCue	ANTI	110	4	False	red	600	[ 90 570 405 675]	[1350 1830  405  675]
698.756	2.0	1280978	1283010	ShowFixation	VGS	111	4	False	lime	40	[ 90 570 405 675]	[1350 1830  405  675]
700.788	0.2	1283010	1283245	BlankScreen	VGS	111	4	False	lime	40	[ 90 570 405 675]	[1350 1830  405  675]
701.023	1.0	1283245	1284245	ELCue	VGS	111	4	False	lime	40	[ 90 570 405 675]	[1350 1830  405  675]
702.445	6.0	1284667	1290697	ShowFixation	VGS	112	4	False	lime	40	[ 90 570 405 675]	[1350 1830  405  675]
708.475	0.2	1290697	1290936	BlankScreen	VGS	112	4	False	lime	40	[ 90 570 405 675]	[1350 1830  405  675]
708.714	1.0	1290936	1291936	ELCue	VGS	112	4	False	lime	40	[ 90 570 405 675]	[1350 1830  405  675]
