participant_id	condition	accuracy	reaction_time
sub-24039	incongruent	0	1.280
sub-24039	congruent	1	0.874
sub-24039	incongruent	0	0.394
sub-24039	congruent	1	0.341
sub-24039	congruent	1	0.495
sub-24039	congruent	1	0.450
sub-24039	incongruent	1	0.556
sub-24039	congruent	0	0.499
sub-24039	congruent	1	0.457
sub-24039	congruent	1	0.542
sub-24039	congruent	1	0.355
sub-24039	congruent	1	0.352
sub-24039	incongruent	0	0.492
sub-24039	incongruent	1	0.740
sub-24039	incongruent	1	0.625
sub-24039	congruent	1	0.518
sub-24039	congruent	1	0.436
sub-24039	congruent	1	0.552
sub-24039	incongruent	1	0.577
sub-24039	congruent	1	0.527
sub-24039	incongruent	1	0.483
sub-24039	incongruent	1	0.507
sub-24039	congruent	1	0.528
sub-24039	congruent	1	0.546
sub-24039	congruent	1	0.435
sub-24039	congruent	1	0.509
sub-24039	incongruent	1	1.066
sub-24039	congruent	1	0.422
sub-24039	congruent	1	0.437
sub-24039	incongruent	1	0.630
sub-24039	incongruent	1	0.889
sub-24039	congruent	1	0.422
sub-24039	congruent	1	0.468
sub-24039	incongruent	1	0.592
sub-24039	incongruent	1	0.501
sub-24039	congruent	1	0.540
sub-24039	incongruent	1	0.622
sub-24039	congruent	1	0.392
sub-24039	incongruent	1	1.286
sub-24039	incongruent	0	0.423
sub-24039	congruent	1	0.458
sub-24039	incongruent	0	0.429
sub-24039	incongruent	1	0.562
sub-24039	congruent	1	0.407
sub-24039	incongruent	1	0.676
sub-24039	incongruent	1	0.858
sub-24039	incongruent	1	0.582
sub-24039	incongruent	1	0.685
sub-24039	congruent	1	0.413
sub-24039	congruent	1	0.484
sub-24039	incongruent	1	0.946
sub-24039	congruent	1	0.522
sub-24039	congruent	1	0.565
sub-24039	incongruent	1	0.622
sub-24039	incongruent	1	0.638
sub-24039	incongruent	1	0.731
sub-24039	incongruent	1	0.992
sub-24039	congruent	1	0.580
sub-24039	incongruent	1	0.611
sub-24039	incongruent	1	0.633
sub-24039	incongruent	1	1.130
sub-24039	incongruent	1	0.490
sub-24039	congruent	1	0.353
sub-24039	congruent	1	0.271
sub-24039	incongruent	1	0.510
sub-24039	incongruent	0	0.446
sub-24039	congruent	1	0.539
sub-24039	congruent	1	0.424
sub-24039	incongruent	1	0.625
sub-24039	congruent	1	0.538
sub-24039	incongruent	1	0.629
sub-24039	incongruent	1	0.498
sub-24039	congruent	1	0.591
sub-24039	congruent	1	0.556
sub-24039	congruent	1	0.530
sub-24039	congruent	1	0.592
sub-24039	congruent	1	0.465
sub-24039	incongruent	1	0.562
sub-24039	incongruent	1	0.582
sub-24039	incongruent	1	0.896
sub-24039	incongruent	1	0.575
sub-24039	congruent	1	0.547
sub-24039	congruent	1	0.372
sub-24039	incongruent	0	0.379
sub-24039	incongruent	1	0.545
sub-24039	incongruent	1	0.426
sub-24039	congruent	1	0.363
sub-24039	congruent	1	0.504
sub-24039	incongruent	1	0.484
sub-24039	incongruent	1	0.573
sub-24039	congruent	1	0.396
sub-24039	incongruent	1	0.610
sub-24039	congruent	1	0.333
sub-24039	incongruent	1	0.526
sub-24039	incongruent	1	0.622
sub-24039	incongruent	1	0.553
sub-24039	incongruent	1	1.070
sub-24039	congruent	1	0.582
sub-24039	congruent	1	0.525
sub-24039	incongruent	0	0.540
sub-24039	congruent	1	0.494
sub-24039	congruent	1	0.565
sub-24039	congruent	1	0.456
sub-24039	incongruent	1	0.598
sub-24039	incongruent	1	0.560
sub-24039	incongruent	1	0.703
sub-24039	incongruent	0	0.414
sub-24039	incongruent	1	0.890
sub-24039	congruent	1	0.485
sub-24039	incongruent	1	0.529
sub-24039	congruent	1	0.606
sub-24039	incongruent	1	0.658
sub-24039	congruent	1	0.568
sub-24039	congruent	1	0.420
sub-24039	congruent	1	0.538
sub-24039	congruent	1	0.428
sub-24039	congruent	1	0.390
sub-24039	congruent	1	0.409
sub-24039	congruent	1	0.520
sub-24039	incongruent	1	1.193
sub-24039	congruent	1	0.570
sub-24039	congruent	1	0.328
sub-24039	incongruent	0	0.296
sub-24039	incongruent	1	0.582
sub-24039	congruent	1	0.630
sub-24039	incongruent	0	0.458
sub-24039	congruent	1	0.473
sub-24039	incongruent	1	0.673
sub-24039	incongruent	1	0.532
sub-24039	incongruent	1	0.683
sub-24039	congruent	1	0.396
sub-24039	incongruent	1	0.580
sub-24039	congruent	1	0.587
sub-24039	incongruent	1	0.600
sub-24039	congruent	1	0.478
sub-24039	congruent	1	0.594
sub-24039	incongruent	1	0.700
sub-24039	incongruent	0	0.414
sub-24039	congruent	1	0.627
sub-24039	congruent	1	0.657
sub-24039	congruent	1	0.297
sub-24039	incongruent	1	0.506
sub-24039	congruent	1	0.467
sub-24039	congruent	1	0.487
sub-24039	congruent	1	0.514
sub-24039	incongruent	1	0.536
sub-24039	congruent	1	0.486
sub-24039	incongruent	0	0.341
sub-24039	incongruent	1	0.683
sub-24039	congruent	1	0.419
sub-24039	congruent	1	0.482
sub-24039	congruent	1	0.446
sub-24039	incongruent	1	0.435
sub-24039	incongruent	1	0.484
sub-24039	congruent	1	0.476
sub-24039	congruent	1	0.372
sub-24039	incongruent	1	0.531
sub-24039	incongruent	1	0.553
sub-24039	congruent	1	0.380
sub-24039	congruent	1	0.554
sub-24039	incongruent	0	0.392
sub-24039	incongruent	1	0.774
sub-24039	incongruent	1	1.100
sub-24039	incongruent	1	0.759
sub-24039	congruent	1	0.435
sub-24039	incongruent	1	0.596
sub-24039	incongruent	1	0.581
sub-24039	incongruent	1	0.668
sub-24039	congruent	1	0.491
sub-24039	congruent	0	0.467
sub-24039	incongruent	1	0.766
sub-24039	incongruent	1	0.627
sub-24039	incongruent	1	0.683
sub-24039	congruent	1	0.436
sub-24039	incongruent	1	0.797
sub-24039	incongruent	1	0.816
sub-24039	congruent	1	0.525
sub-24039	congruent	1	0.553
sub-24039	congruent	1	0.635
sub-24039	congruent	1	0.540
sub-24039	incongruent	1	1.983
sub-24039	congruent	1	0.627
sub-24039	congruent	1	0.604
sub-24039	incongruent	1	0.652
sub-24039	congruent	1	0.669
sub-24039	incongruent	0	0.480
sub-24039	incongruent	1	0.975
sub-24039	incongruent	1	0.842
sub-24039	incongruent	1	0.668
sub-24039	incongruent	1	0.573
sub-24039	congruent	1	0.396
sub-24039	congruent	1	0.470
sub-24039	incongruent	1	0.590
sub-24039	incongruent	1	0.482
sub-24039	congruent	1	0.421
sub-24039	congruent	1	0.461
sub-24039	incongruent	1	0.901
sub-24039	incongruent	1	0.798
sub-24039	congruent	1	1.102
sub-24039	congruent	1	0.742
sub-24039	congruent	1	0.808
sub-24039	incongruent	1	1.344
sub-24039	congruent	1	0.351
sub-24039	congruent	1	0.387
sub-24039	congruent	1	0.293
sub-24039	congruent	1	0.283
sub-24039	incongruent	0	0.303
sub-24039	incongruent	1	0.690
sub-24039	congruent	1	0.421
sub-24039	incongruent	1	0.624
sub-24039	congruent	1	0.365
sub-24039	incongruent	0	0.377
sub-24039	congruent	1	1.052
sub-24039	incongruent	1	0.990
sub-24039	congruent	1	0.633
sub-24039	incongruent	1	0.666
sub-24039	congruent	1	0.556
sub-24039	incongruent	1	0.689
sub-24039	incongruent	0	0.440
sub-24039	congruent	1	1.449
sub-24039	congruent	1	0.747
sub-24039	incongruent	1	0.634
sub-24039	incongruent	1	0.678
sub-24039	congruent	1	0.383
sub-24039	incongruent	1	0.757
sub-24039	incongruent	1	0.692
sub-24039	congruent	1	0.575
sub-24039	congruent	1	0.516
sub-24039	incongruent	1	0.730
sub-24039	congruent	1	0.439
sub-24039	incongruent	1	0.596
sub-24039	incongruent	1	0.623
sub-24039	congruent	1	0.584
sub-24039	congruent	1	0.595
sub-24039	incongruent	0	0.599
sub-24039	congruent	1	0.546
sub-24039	congruent	1	0.502
sub-24039	incongruent	1	0.635
sub-24039	incongruent	1	0.755
sub-24039	congruent	1	0.520
