onset	duration	startTime	stopTime	eventIdentifier	trial_type	trial_number	block_number	is_practice	fixation_color	cue_side	aoi_correct	aoi_incorrect
0.151	2.0	557875	559901	ShowFixation	VGS	1	1	True	lime	460	[1035 1515  405  675]	[405 885 405 675]
2.177	0.2	559901	560136	BlankScreen	VGS	1	1	True	lime	460	[1035 1515  405  675]	[405 885 405 675]
2.412	1.0	560136	561176	ELCue	VGS	1	1	True	lime	460	[1035 1515  405  675]	[405 885 405 675]
3.872	6.0	561596	568222	ShowFixation	VGS	2	1	True	lime	460	[1035 1515  405  675]	[405 885 405 675]
10.498	0.2	568222	568461	BlankScreen	VGS	2	1	True	lime	460	[1035 1515  405  675]	[405 885 405 675]
10.737	1.0	568461	569501	ELCue	VGS	2	1	True	lime	460	[1035 1515  405  675]	[405 885 405 675]
12.174	2.0	569898	572530	ShowFixation	ANTI	3	1	True	red	180	[1035 1515  405  675]	[405 885 405 675]
14.806	0.2	572530	572749	BlankScreen	ANTI	3	1	True	red	180	[1035 1515  405  675]	[405 885 405 675]
15.025	1.0	572749	573772	ELCue	ANTI	3	1	True	red	180	[1035 1515  405  675]	[405 885 405 675]
16.465	6.0	574189	580817	ShowFixation	ANTI	4	1	True	red	460	[405 885 405 675]	[1035 1515  405  675]
23.093	0.2	580817	581057	BlankScreen	ANTI	4	1	True	red	460	[405 885 405 675]	[1035 1515  405  675]
23.333	1.0	581057	582097	ELCue	ANTI	4	1	True	red	460	[405 885 405 675]	[1035 1515  405  675]
24.79	6.0	582514	589142	ShowFixation	ANTI	5	1	True	red	40	[1350 1830  405  675]	[ 90 570 405 675]
31.418	0.2	589142	589382	BlankScreen	ANTI	5	1	True	red	40	[1350 1830  405  675]	[ 90 570 405 675]
31.658	1.0	589382	590422	ELCue	ANTI	5	1	True	red	40	[1350 1830  405  675]	[ 90 570 405 675]
33.112	6.0	590836	597451	ShowFixation	VGS	6	1	True	lime	40	[ 90 570 405 675]	[1350 1830  405  675]
39.727	0.2	597451	597690	BlankScreen	VGS	6	1	True	lime	40	[ 90 570 405 675]	[1350 1830  405  675]
39.966	1.0	597690	598730	ELCue	VGS	6	1	True	lime	40	[ 90 570 405 675]	[1350 1830  405  675]
41.424	2.0	599148	601775	ShowFixation	ANTI	7	1	True	red	40	[1350 1830  405  675]	[ 90 570 405 675]
44.051	0.2	601775	602011	BlankScreen	ANTI	7	1	True	red	40	[1350 1830  405  675]	[ 90 570 405 675]
44.287	1.0	602011	603051	ELCue	ANTI	7	1	True	red	40	[1350 1830  405  675]	[ 90 570 405 675]
45.73	6.0	603454	610096	ShowFixation	ANTI	8	1	True	red	180	[1035 1515  405  675]	[405 885 405 675]
52.372	0.2	610096	610336	BlankScreen	ANTI	8	1	True	red	180	[1035 1515  405  675]	[405 885 405 675]
52.612	1.0	610336	611376	ELCue	ANTI	8	1	True	red	180	[1035 1515  405  675]	[405 885 405 675]
54.074	6.0	611798	618405	ShowFixation	VGS	9	1	True	lime	600	[1350 1830  405  675]	[ 90 570 405 675]
60.681	0.2	618405	618644	BlankScreen	VGS	9	1	True	lime	600	[1350 1830  405  675]	[ 90 570 405 675]
60.92	1.0	618644	619684	ELCue	VGS	9	1	True	lime	600	[1350 1830  405  675]	[ 90 570 405 675]
62.377	2.0	620101	622713	ShowFixation	VGS	10	1	True	lime	180	[405 885 405 675]	[1035 1515  405  675]
64.989	0.2	622713	622931	BlankScreen	VGS	10	1	True	lime	180	[405 885 405 675]	[1035 1515  405  675]
65.207	1.0	622931	623955	ELCue	VGS	10	1	True	lime	180	[405 885 405 675]	[1035 1515  405  675]
66.651	6.0	624375	631000	ShowFixation	VGS	11	1	True	lime	180	[405 885 405 675]	[1035 1515  405  675]
73.276	0.2	631000	631240	BlankScreen	VGS	11	1	True	lime	180	[405 885 405 675]	[1035 1515  405  675]
73.516	1.0	631240	632280	ELCue	VGS	11	1	True	lime	180	[405 885 405 675]	[1035 1515  405  675]
74.974	6.0	632698	639325	ShowFixation	ANTI	12	1	True	red	600	[ 90 570 405 675]	[1350 1830  405  675]
81.601	0.2	639325	639565	BlankScreen	ANTI	12	1	True	red	600	[ 90 570 405 675]	[1350 1830  405  675]
81.841	1.0	639565	640605	ELCue	ANTI	12	1	True	red	600	[ 90 570 405 675]	[1350 1830  405  675]
83.301	2.0	641025	643650	ShowFixation	VGS	13	1	True	lime	40	[ 90 570 405 675]	[1350 1830  405  675]
85.926	0.2	643650	643885	BlankScreen	VGS	13	1	True	lime	40	[ 90 570 405 675]	[1350 1830  405  675]
86.161	1.0	643885	644926	ELCue	VGS	13	1	True	lime	40	[ 90 570 405 675]	[1350 1830  405  675]
87.62	2.0	645344	647971	ShowFixation	ANTI	14	1	True	red	460	[405 885 405 675]	[1035 1515  405  675]
90.247	0.2	647971	648206	BlankScreen	ANTI	14	1	True	red	460	[405 885 405 675]	[1035 1515  405  675]
90.482	1.0	648206	649247	ELCue	ANTI	14	1	True	red	460	[405 885 405 675]	[1035 1515  405  675]
91.938	2.0	649662	652292	ShowFixation	ANTI	15	1	True	red	600	[ 90 570 405 675]	[1350 1830  405  675]
94.568	0.2	652292	652527	BlankScreen	ANTI	15	1	True	red	600	[ 90 570 405 675]	[1350 1830  405  675]
94.803	1.0	652527	653568	ELCue	ANTI	15	1	True	red	600	[ 90 570 405 675]	[1350 1830  405  675]
96.262	2.0	653986	656613	ShowFixation	VGS	16	1	True	lime	600	[1350 1830  405  675]	[ 90 570 405 675]
98.889	0.2	656613	656848	BlankScreen	VGS	16	1	True	lime	600	[1350 1830  405  675]	[ 90 570 405 675]
99.124	1.0	656848	657889	ELCue	VGS	16	1	True	lime	600	[1350 1830  405  675]	[ 90 570 405 675]
139.61	2.0	697334	699373	ShowFixation	VGS	17	2	False	lime	180	[405 885 405 675]	[1035 1515  405  675]
141.649	0.2	699373	699608	BlankScreen	VGS	17	2	False	lime	180	[405 885 405 675]	[1035 1515  405  675]
141.884	1.0	699608	700608	ELCue	VGS	17	2	False	lime	180	[405 885 405 675]	[1035 1515  405  675]
143.365	6.0	701089	707127	ShowFixation	VGS	18	2	False	lime	600	[1350 1830  405  675]	[ 90 570 405 675]
149.403	0.2	707127	707366	BlankScreen	VGS	18	2	False	lime	600	[1350 1830  405  675]	[ 90 570 405 675]
149.642	1.0	707366	708366	ELCue	VGS	18	2	False	lime	600	[1350 1830  405  675]	[ 90 570 405 675]
151.06	2.0	708784	710818	ShowFixation	ANTI	19	2	False	red	600	[ 90 570 405 675]	[1350 1830  405  675]
153.094	0.2	710818	711053	BlankScreen	ANTI	19	2	False	red	600	[ 90 570 405 675]	[1350 1830  405  675]
153.329	1.0	711053	712053	ELCue	ANTI	19	2	False	red	600	[ 90 570 405 675]	[1350 1830  405  675]
154.749	6.0	712473	718504	ShowFixation	VGS	20	2	False	lime	180	[405 885 405 675]	[1035 1515  405  675]
160.78	0.2	718504	718744	BlankScreen	VGS	20	2	False	lime	180	[405 885 405 675]	[1035 1515  405  675]
161.02	1.0	718744	719744	ELCue	VGS	20	2	False	lime	180	[405 885 405 675]	[1035 1515  405  675]
162.436	6.0	720160	726195	ShowFixation	VGS	21	2	False	lime	460	[1035 1515  405  675]	[405 885 405 675]
168.471	0.2	726195	726435	BlankScreen	VGS	21	2	False	lime	460	[1035 1515  405  675]	[405 885 405 675]
168.711	1.0	726435	727435	ELCue	VGS	21	2	False	lime	460	[1035 1515  405  675]	[405 885 405 675]
170.131	2.0	727855	729886	ShowFixation	ANTI	22	2	False	red	180	[1035 1515  405  675]	[405 885 405 675]
172.162	0.2	729886	730122	BlankScreen	ANTI	22	2	False	red	180	[1035 1515  405  675]	[405 885 405 675]
172.398	1.0	730122	731122	ELCue	ANTI	22	2	False	red	180	[1035 1515  405  675]	[405 885 405 675]
173.802	2.0	731526	733557	ShowFixation	VGS	23	2	False	lime	460	[1035 1515  405  675]	[405 885 405 675]
175.833	0.2	733557	733792	BlankScreen	VGS	23	2	False	lime	460	[1035 1515  405  675]	[405 885 405 675]
176.068	1.0	733792	734792	ELCue	VGS	23	2	False	lime	460	[1035 1515  405  675]	[405 885 405 675]
177.489	6.0	735213	741244	ShowFixation	ANTI	24	2	False	red	180	[1035 1515  405  675]	[405 885 405 675]
183.52	0.2	741244	741483	BlankScreen	ANTI	24	2	False	red	180	[1035 1515  405  675]	[405 885 405 675]
183.759	1.0	741483	742483	ELCue	ANTI	24	2	False	red	180	[1035 1515  405  675]	[405 885 405 675]
185.178	6.0	742902	748935	ShowFixation	ANTI	25	2	False	red	40	[1350 1830  405  675]	[ 90 570 405 675]
191.211	0.2	748935	749174	BlankScreen	ANTI	25	2	False	red	40	[1350 1830  405  675]	[ 90 570 405 675]
191.45	1.0	749174	750174	ELCue	ANTI	25	2	False	red	40	[1350 1830  405  675]	[ 90 570 405 675]
192.869	2.0	750593	752625	ShowFixation	ANTI	26	2	False	red	460	[405 885 405 675]	[1035 1515  405  675]
194.901	0.2	752625	752861	BlankScreen	ANTI	26	2	False	red	460	[405 885 405 675]	[1035 1515  405  675]
195.137	1.0	752861	753861	ELCue	ANTI	26	2	False	red	460	[405 885 405 675]	[1035 1515  405  675]
196.558	6.0	754282	760312	ShowFixation	ANTI	27	2	False	red	460	[405 885 405 675]	[1035 1515  405  675]
202.588	0.2	760312	760552	BlankScreen	ANTI	27	2	False	red	460	[405 885 405 675]	[1035 1515  405  675]
202.828	1.0	760552	761552	ELCue	ANTI	27	2	False	red	460	[405 885 405 675]	[1035 1515  405  675]
204.249	6.0	761973	768003	ShowFixation	VGS	28	2	False	lime	40	[ 90 570 405 675]	[1350 1830  405  675]
210.279	0.2	768003	768243	BlankScreen	VGS	28	2	False	lime	40	[ 90 570 405 675]	[1350 1830  405  675]
210.519	1.0	768243	769243	ELCue	VGS	28	2	False	lime	40	[ 90 570 405 675]	[1350 1830  405  675]
211.942	2.0	769666	771694	ShowFixation	ANTI	29	2	False	red	460	[405 885 405 675]	[1035 1515  405  675]
213.97	0.2	771694	771930	BlankScreen	ANTI	29	2	False	red	460	[405 885 405 675]	[1035 1515  405  675]
214.206	1.0	771930	772930	ELCue	ANTI	29	2	False	red	460	[405 885 405 675]	[1035 1515  405  675]
215.621	2.0	773345	775381	ShowFixation	VGS	30	2	False	lime	600	[1350 1830  405  675]	[ 90 570 405 675]
217.657	0.2	775381	775617	BlankScreen	VGS	30	2	False	lime	600	[1350 1830  405  675]	[ 90 570 405 675]
217.893	1.0	775617	776617	ELCue	VGS	30	2	False	lime	600	[1350 1830  405  675]	[ 90 570 405 675]
219.313	6.0	777037	783068	ShowFixation	VGS	31	2	False	lime	180	[405 885 405 675]	[1035 1515  405  675]
225.344	0.2	783068	783308	BlankScreen	VGS	31	2	False	lime	180	[405 885 405 675]	[1035 1515  405  675]
225.584	1.0	783308	784308	ELCue	VGS	31	2	False	lime	180	[405 885 405 675]	[1035 1515  405  675]
227.006	2.0	784730	786759	ShowFixation	VGS	32	2	False	lime	40	[ 90 570 405 675]	[1350 1830  405  675]
229.035	0.2	786759	786995	BlankScreen	VGS	32	2	False	lime	40	[ 90 570 405 675]	[1350 1830  405  675]
229.271	1.0	786995	787995	ELCue	VGS	32	2	False	lime	40	[ 90 570 405 675]	[1350 1830  405  675]
230.693	2.0	788417	790446	ShowFixation	VGS	33	2	False	lime	40	[ 90 570 405 675]	[1350 1830  405  675]
232.722	0.2	790446	790682	BlankScreen	VGS	33	2	False	lime	40	[ 90 570 405 675]	[1350 1830  405  675]
232.958	1.0	790682	791682	ELCue	VGS	33	2	False	lime	40	[ 90 570 405 675]	[1350 1830  405  675]
234.376	2.0	792100	794133	ShowFixation	ANTI	34	2	False	red	180	[1035 1515  405  675]	[405 885 405 675]
236.409	0.2	794133	794368	BlankScreen	ANTI	34	2	False	red	180	[1035 1515  405  675]	[405 885 405 675]
236.644	1.0	794368	795368	ELCue	ANTI	34	2	False	red	180	[1035 1515  405  675]	[405 885 405 675]
238.069	2.0	795793	797820	ShowFixation	VGS	35	2	False	lime	600	[1350 1830  405  675]	[ 90 570 405 675]
240.096	0.2	797820	798055	BlankScreen	VGS	35	2	False	lime	600	[1350 1830  405  675]	[ 90 570 405 675]
240.331	1.0	798055	799055	ELCue	VGS	35	2	False	lime	600	[1350 1830  405  675]	[ 90 570 405 675]
241.751	6.0	799475	805507	ShowFixation	ANTI	36	2	False	red	40	[1350 1830  405  675]	[ 90 570 405 675]
247.783	0.2	805507	805746	BlankScreen	ANTI	36	2	False	red	40	[1350 1830  405  675]	[ 90 570 405 675]
248.022	1.0	805746	806746	ELCue	ANTI	36	2	False	red	40	[1350 1830  405  675]	[ 90 570 405 675]
249.425	6.0	807149	813181	ShowFixation	VGS	37	2	False	lime	40	[ 90 570 405 675]	[1350 1830  405  675]
255.457	0.2	813181	813421	BlankScreen	VGS	37	2	False	lime	40	[ 90 570 405 675]	[1350 1830  405  675]
255.697	1.0	813421	814421	ELCue	VGS	37	2	False	lime	40	[ 90 570 405 675]	[1350 1830  405  675]
257.12	6.0	814844	820872	ShowFixation	ANTI	38	2	False	red	600	[ 90 570 405 675]	[1350 1830  405  675]
263.148	0.2	820872	821112	BlankScreen	ANTI	38	2	False	red	600	[ 90 570 405 675]	[1350 1830  405  675]
263.388	1.0	821112	822112	ELCue	ANTI	38	2	False	red	600	[ 90 570 405 675]	[1350 1830  405  675]
264.806	6.0	822530	828563	ShowFixation	ANTI	39	2	False	red	600	[ 90 570 405 675]	[1350 1830  405  675]
270.839	0.2	828563	828802	BlankScreen	ANTI	39	2	False	red	600	[ 90 570 405 675]	[1350 1830  405  675]
271.078	1.0	828802	829802	ELCue	ANTI	39	2	False	red	600	[ 90 570 405 675]	[1350 1830  405  675]
272.501	2.0	830225	832254	ShowFixation	ANTI	40	2	False	red	600	[ 90 570 405 675]	[1350 1830  405  675]
274.53	0.2	832254	832489	BlankScreen	ANTI	40	2	False	red	600	[ 90 570 405 675]	[1350 1830  405  675]
274.765	1.0	832489	833489	ELCue	ANTI	40	2	False	red	600	[ 90 570 405 675]	[1350 1830  405  675]
276.19	2.0	833914	835941	ShowFixation	ANTI	41	2	False	red	40	[1350 1830  405  675]	[ 90 570 405 675]
278.217	0.2	835941	836176	BlankScreen	ANTI	41	2	False	red	40	[1350 1830  405  675]	[ 90 570 405 675]
278.452	1.0	836176	837176	ELCue	ANTI	41	2	False	red	40	[1350 1830  405  675]	[ 90 570 405 675]
279.87	2.0	837594	839628	ShowFixation	VGS	42	2	False	lime	180	[405 885 405 675]	[1035 1515  405  675]
281.904	0.2	839628	839863	BlankScreen	VGS	42	2	False	lime	180	[405 885 405 675]	[1035 1515  405  675]
282.14	1.0	839864	840864	ELCue	VGS	42	2	False	lime	180	[405 885 405 675]	[1035 1515  405  675]
283.559	2.0	841283	843315	ShowFixation	ANTI	43	2	False	red	40	[1350 1830  405  675]	[ 90 570 405 675]
285.592	0.2	843316	843550	BlankScreen	ANTI	43	2	False	red	40	[1350 1830  405  675]	[ 90 570 405 675]
285.827	1.0	843551	844551	ELCue	ANTI	43	2	False	red	40	[1350 1830  405  675]	[ 90 570 405 675]
287.248	6.0	844972	851003	ShowFixation	ANTI	44	2	False	red	180	[1035 1515  405  675]	[405 885 405 675]
293.279	0.2	851003	851242	BlankScreen	ANTI	44	2	False	red	180	[1035 1515  405  675]	[405 885 405 675]
293.518	1.0	851242	852242	ELCue	ANTI	44	2	False	red	180	[1035 1515  405  675]	[405 885 405 675]
294.94	2.0	852664	854694	ShowFixation	VGS	45	2	False	lime	460	[1035 1515  405  675]	[405 885 405 675]
296.97	0.2	854694	854929	BlankScreen	VGS	45	2	False	lime	460	[1035 1515  405  675]	[405 885 405 675]
297.205	1.0	854929	855929	ELCue	VGS	45	2	False	lime	460	[1035 1515  405  675]	[405 885 405 675]
298.626	6.0	856350	862381	ShowFixation	VGS	46	2	False	lime	460	[1035 1515  405  675]	[405 885 405 675]
304.657	0.2	862381	862620	BlankScreen	VGS	46	2	False	lime	460	[1035 1515  405  675]	[405 885 405 675]
304.896	1.0	862620	863620	ELCue	VGS	46	2	False	lime	460	[1035 1515  405  675]	[405 885 405 675]
306.318	6.0	864042	870072	ShowFixation	VGS	47	2	False	lime	600	[1350 1830  405  675]	[ 90 570 405 675]
312.348	0.2	870072	870311	BlankScreen	VGS	47	2	False	lime	600	[1350 1830  405  675]	[ 90 570 405 675]
312.587	1.0	870311	871311	ELCue	VGS	47	2	False	lime	600	[1350 1830  405  675]	[ 90 570 405 675]
314.01	6.0	871734	877763	ShowFixation	ANTI	48	2	False	red	460	[405 885 405 675]	[1035 1515  405  675]
320.039	0.2	877763	878002	BlankScreen	ANTI	48	2	False	red	460	[405 885 405 675]	[1035 1515  405  675]
320.278	1.0	878002	879002	ELCue	ANTI	48	2	False	red	460	[405 885 405 675]	[1035 1515  405  675]
339.245	6.0	896969	903004	ShowFixation	VGS	49	3	False	lime	180	[405 885 405 675]	[1035 1515  405  675]
345.28	0.2	903004	903244	BlankScreen	VGS	49	3	False	lime	180	[405 885 405 675]	[1035 1515  405  675]
345.52	1.0	903244	904244	ELCue	VGS	49	3	False	lime	180	[405 885 405 675]	[1035 1515  405  675]
346.938	2.0	904662	906695	ShowFixation	ANTI	50	3	False	red	180	[1035 1515  405  675]	[405 885 405 675]
348.971	0.2	906695	906931	BlankScreen	ANTI	50	3	False	red	180	[1035 1515  405  675]	[405 885 405 675]
349.207	1.0	906931	907931	ELCue	ANTI	50	3	False	red	180	[1035 1515  405  675]	[405 885 405 675]
350.629	2.0	908353	910382	ShowFixation	VGS	51	3	False	lime	40	[ 90 570 405 675]	[1350 1830  405  675]
352.658	0.2	910382	910618	BlankScreen	VGS	51	3	False	lime	40	[ 90 570 405 675]	[1350 1830  405  675]
352.894	1.0	910618	911618	ELCue	VGS	51	3	False	lime	40	[ 90 570 405 675]	[1350 1830  405  675]
354.314	2.0	912038	914069	ShowFixation	VGS	52	3	False	lime	460	[1035 1515  405  675]	[405 885 405 675]
356.345	0.2	914069	914305	BlankScreen	VGS	52	3	False	lime	460	[1035 1515  405  675]	[405 885 405 675]
356.581	1.0	914305	915305	ELCue	VGS	52	3	False	lime	460	[1035 1515  405  675]	[405 885 405 675]
357.994	2.0	915718	917756	ShowFixation	ANTI	53	3	False	red	600	[ 90 570 405 675]	[1350 1830  405  675]
360.032	0.2	917756	917992	BlankScreen	ANTI	53	3	False	red	600	[ 90 570 405 675]	[1350 1830  405  675]
360.268	1.0	917992	918992	ELCue	ANTI	53	3	False	red	600	[ 90 570 405 675]	[1350 1830  405  675]
361.687	6.0	919411	925443	ShowFixation	ANTI	54	3	False	red	180	[1035 1515  405  675]	[405 885 405 675]
367.719	0.2	925443	925683	BlankScreen	ANTI	54	3	False	red	180	[1035 1515  405  675]	[405 885 405 675]
367.959	1.0	925683	926683	ELCue	ANTI	54	3	False	red	180	[1035 1515  405  675]	[405 885 405 675]
369.38	6.0	927104	933134	ShowFixation	ANTI	55	3	False	red	180	[1035 1515  405  675]	[405 885 405 675]
375.41	0.2	933134	933373	BlankScreen	ANTI	55	3	False	red	180	[1035 1515  405  675]	[405 885 405 675]
375.649	1.0	933373	934373	ELCue	ANTI	55	3	False	red	180	[1035 1515  405  675]	[405 885 405 675]
377.068	2.0	934792	936825	ShowFixation	VGS	56	3	False	lime	600	[1350 1830  405  675]	[ 90 570 405 675]
379.101	0.2	936825	937060	BlankScreen	VGS	56	3	False	lime	600	[1350 1830  405  675]	[ 90 570 405 675]
379.336	1.0	937060	938060	ELCue	VGS	56	3	False	lime	600	[1350 1830  405  675]	[ 90 570 405 675]
380.759	2.0	938483	940512	ShowFixation	VGS	57	3	False	lime	460	[1035 1515  405  675]	[405 885 405 675]
382.788	0.2	940512	940747	BlankScreen	VGS	57	3	False	lime	460	[1035 1515  405  675]	[405 885 405 675]
383.023	1.0	940747	941747	ELCue	VGS	57	3	False	lime	460	[1035 1515  405  675]	[405 885 405 675]
384.449	2.0	942173	944199	ShowFixation	ANTI	58	3	False	red	40	[1350 1830  405  675]	[ 90 570 405 675]
386.475	0.2	944199	944434	BlankScreen	ANTI	58	3	False	red	40	[1350 1830  405  675]	[ 90 570 405 675]
386.71	1.0	944434	945434	ELCue	ANTI	58	3	False	red	40	[1350 1830  405  675]	[ 90 570 405 675]
388.133	2.0	945857	947886	ShowFixation	ANTI	59	3	False	red	180	[1035 1515  405  675]	[405 885 405 675]
390.162	0.2	947886	948121	BlankScreen	ANTI	59	3	False	red	180	[1035 1515  405  675]	[405 885 405 675]
390.397	1.0	948121	949121	ELCue	ANTI	59	3	False	red	180	[1035 1515  405  675]	[405 885 405 675]
391.82	2.0	949544	951573	ShowFixation	ANTI	60	3	False	red	600	[ 90 570 405 675]	[1350 1830  405  675]
393.849	0.2	951573	951808	BlankScreen	ANTI	60	3	False	red	600	[ 90 570 405 675]	[1350 1830  405  675]
394.084	1.0	951808	952808	ELCue	ANTI	60	3	False	red	600	[ 90 570 405 675]	[1350 1830  405  675]
395.507	6.0	953231	959260	ShowFixation	VGS	61	3	False	lime	600	[1350 1830  405  675]	[ 90 570 405 675]
401.536	0.2	959260	959499	BlankScreen	VGS	61	3	False	lime	600	[1350 1830  405  675]	[ 90 570 405 675]
401.775	1.0	959499	960499	ELCue	VGS	61	3	False	lime	600	[1350 1830  405  675]	[ 90 570 405 675]
403.198	6.0	960922	966952	ShowFixation	ANTI	62	3	False	red	40	[1350 1830  405  675]	[ 90 570 405 675]
409.228	0.2	966952	967190	BlankScreen	ANTI	62	3	False	red	40	[1350 1830  405  675]	[ 90 570 405 675]
409.466	1.0	967190	968190	ELCue	ANTI	62	3	False	red	40	[1350 1830  405  675]	[ 90 570 405 675]
410.884	2.0	968608	970642	ShowFixation	VGS	63	3	False	lime	600	[1350 1830  405  675]	[ 90 570 405 675]
412.918	0.2	970642	970877	BlankScreen	VGS	63	3	False	lime	600	[1350 1830  405  675]	[ 90 570 405 675]
413.153	1.0	970877	971877	ELCue	VGS	63	3	False	lime	600	[1350 1830  405  675]	[ 90 570 405 675]
414.56	2.0	972284	974312	ShowFixation	ANTI	64	3	False	red	460	[405 885 405 675]	[1035 1515  405  675]
416.588	0.2	974312	974547	BlankScreen	ANTI	64	3	False	red	460	[405 885 405 675]	[1035 1515  405  675]
416.823	1.0	974547	975547	ELCue	ANTI	64	3	False	red	460	[405 885 405 675]	[1035 1515  405  675]
418.245	6.0	975969	981999	ShowFixation	VGS	65	3	False	lime	600	[1350 1830  405  675]	[ 90 570 405 675]
424.275	0.2	981999	982238	BlankScreen	VGS	65	3	False	lime	600	[1350 1830  405  675]	[ 90 570 405 675]
424.514	1.0	982238	983238	ELCue	VGS	65	3	False	lime	600	[1350 1830  405  675]	[ 90 570 405 675]
425.938	6.0	983662	989690	ShowFixation	VGS	66	3	False	lime	180	[405 885 405 675]	[1035 1515  405  675]
431.967	0.2	989691	989929	BlankScreen	VGS	66	3	False	lime	180	[405 885 405 675]	[1035 1515  405  675]
432.205	1.0	989929	990929	ELCue	VGS	66	3	False	lime	180	[405 885 405 675]	[1035 1515  405  675]
433.625	6.0	991349	997381	ShowFixation	VGS	67	3	False	lime	460	[1035 1515  405  675]	[405 885 405 675]
439.658	0.2	997382	997621	BlankScreen	VGS	67	3	False	lime	460	[1035 1515  405  675]	[405 885 405 675]
439.897	1.0	997621	998621	ELCue	VGS	67	3	False	lime	460	[1035 1515  405  675]	[405 885 405 675]
441.303	2.0	999027	1001056	ShowFixation	ANTI	68	3	False	red	40	[1350 1830  405  675]	[ 90 570 405 675]
443.332	0.2	1001056	1001292	BlankScreen	ANTI	68	3	False	red	40	[1350 1830  405  675]	[ 90 570 405 675]
443.568	1.0	1001292	1002292	ELCue	ANTI	68	3	False	red	40	[1350 1830  405  675]	[ 90 570 405 675]
444.988	6.0	1002712	1008743	ShowFixation	VGS	69	3	False	lime	40	[ 90 570 405 675]	[1350 1830  405  675]
451.019	0.2	1008743	1008982	BlankScreen	VGS	69	3	False	lime	40	[ 90 570 405 675]	[1350 1830  405  675]
451.258	1.0	1008982	1009982	ELCue	VGS	69	3	False	lime	40	[ 90 570 405 675]	[1350 1830  405  675]
452.678	2.0	1010402	1012434	ShowFixation	VGS	70	3	False	lime	180	[405 885 405 675]	[1035 1515  405  675]
454.71	0.2	1012434	1012669	BlankScreen	VGS	70	3	False	lime	180	[405 885 405 675]	[1035 1515  405  675]
454.945	1.0	1012669	1013669	ELCue	VGS	70	3	False	lime	180	[405 885 405 675]	[1035 1515  405  675]
456.367	6.0	1014091	1020121	ShowFixation	ANTI	71	3	False	red	460	[405 885 405 675]	[1035 1515  405  675]
462.397	0.2	1020121	1020360	BlankScreen	ANTI	71	3	False	red	460	[405 885 405 675]	[1035 1515  405  675]
462.636	1.0	1020360	1021360	ELCue	ANTI	71	3	False	red	460	[405 885 405 675]	[1035 1515  405  675]
464.053	6.0	1021777	1027812	ShowFixation	ANTI	72	3	False	red	40	[1350 1830  405  675]	[ 90 570 405 675]
470.088	0.2	1027812	1028051	BlankScreen	ANTI	72	3	False	red	40	[1350 1830  405  675]	[ 90 570 405 675]
470.327	1.0	1028051	1029051	ELCue	ANTI	72	3	False	red	40	[1350 1830  405  675]	[ 90 570 405 675]
471.749	2.0	1029473	1031503	ShowFixation	VGS	73	3	False	lime	180	[405 885 405 675]	[1035 1515  405  675]
473.779	0.2	1031503	1031738	BlankScreen	VGS	73	3	False	lime	180	[405 885 405 675]	[1035 1515  405  675]
474.014	1.0	1031738	1032738	ELCue	VGS	73	3	False	lime	180	[405 885 405 675]	[1035 1515  405  675]
475.432	6.0	1033156	1039190	ShowFixation	VGS	74	3	False	lime	460	[1035 1515  405  675]	[405 885 405 675]
481.466	0.2	1039190	1039429	BlankScreen	VGS	74	3	False	lime	460	[1035 1515  405  675]	[405 885 405 675]
481.705	1.0	1039429	1040429	ELCue	VGS	74	3	False	lime	460	[1035 1515  405  675]	[405 885 405 675]
483.125	6.0	1040849	1046881	ShowFixation	ANTI	75	3	False	red	600	[ 90 570 405 675]	[1350 1830  405  675]
489.157	0.2	1046881	1047120	BlankScreen	ANTI	75	3	False	red	600	[ 90 570 405 675]	[1350 1830  405  675]
489.396	1.0	1047120	1048120	ELCue	ANTI	75	3	False	red	600	[ 90 570 405 675]	[1350 1830  405  675]
490.814	6.0	1048538	1054572	ShowFixation	ANTI	76	3	False	red	460	[405 885 405 675]	[1035 1515  405  675]
496.848	0.2	1054572	1054811	BlankScreen	ANTI	76	3	False	red	460	[405 885 405 675]	[1035 1515  405  675]
497.087	1.0	1054811	1055811	ELCue	ANTI	76	3	False	red	460	[405 885 405 675]	[1035 1515  405  675]
498.507	2.0	1056231	1058263	ShowFixation	ANTI	77	3	False	red	460	[405 885 405 675]	[1035 1515  405  675]
500.539	0.2	1058263	1058498	BlankScreen	ANTI	77	3	False	red	460	[405 885 405 675]	[1035 1515  405  675]
500.774	1.0	1058498	1059498	ELCue	ANTI	77	3	False	red	460	[405 885 405 675]	[1035 1515  405  675]
502.195	6.0	1059919	1065950	ShowFixation	ANTI	78	3	False	red	600	[ 90 570 405 675]	[1350 1830  405  675]
508.226	0.2	1065950	1066189	BlankScreen	ANTI	78	3	False	red	600	[ 90 570 405 675]	[1350 1830  405  675]
508.465	1.0	1066189	1067189	ELCue	ANTI	78	3	False	red	600	[ 90 570 405 675]	[1350 1830  405  675]
509.889	6.0	1067613	1073641	ShowFixation	VGS	79	3	False	lime	40	[ 90 570 405 675]	[1350 1830  405  675]
515.917	0.2	1073641	1073880	BlankScreen	VGS	79	3	False	lime	40	[ 90 570 405 675]	[1350 1830  405  675]
516.156	1.0	1073880	1074880	ELCue	VGS	79	3	False	lime	40	[ 90 570 405 675]	[1350 1830  405  675]
517.577	2.0	1075301	1077332	ShowFixation	VGS	80	3	False	lime	40	[ 90 570 405 675]	[1350 1830  405  675]
519.608	0.2	1077332	1077567	BlankScreen	VGS	80	3	False	lime	40	[ 90 570 405 675]	[1350 1830  405  675]
519.843	1.0	1077567	1078567	ELCue	VGS	80	3	False	lime	40	[ 90 570 405 675]	[1350 1830  405  675]
528.584	2.0	1086308	1088342	ShowFixation	VGS	81	4	False	lime	40	[ 90 570 405 675]	[1350 1830  405  675]
530.618	0.2	1088342	1088578	BlankScreen	VGS	81	4	False	lime	40	[ 90 570 405 675]	[1350 1830  405  675]
530.854	1.0	1088578	1089578	ELCue	VGS	81	4	False	lime	40	[ 90 570 405 675]	[1350 1830  405  675]
532.276	2.0	1090000	1092029	ShowFixation	VGS	82	4	False	lime	460	[1035 1515  405  675]	[405 885 405 675]
534.305	0.2	1092029	1092265	BlankScreen	VGS	82	4	False	lime	460	[1035 1515  405  675]	[405 885 405 675]
534.541	1.0	1092265	1093265	ELCue	VGS	82	4	False	lime	460	[1035 1515  405  675]	[405 885 405 675]
535.959	2.0	1093683	1095716	ShowFixation	VGS	83	4	False	lime	600	[1350 1830  405  675]	[ 90 570 405 675]
537.992	0.2	1095716	1095952	BlankScreen	VGS	83	4	False	lime	600	[1350 1830  405  675]	[ 90 570 405 675]
538.228	1.0	1095952	1096952	ELCue	VGS	83	4	False	lime	600	[1350 1830  405  675]	[ 90 570 405 675]
539.646	2.0	1097370	1099403	ShowFixation	ANTI	84	4	False	red	460	[405 885 405 675]	[1035 1515  405  675]
541.679	0.2	1099403	1099639	BlankScreen	ANTI	84	4	False	red	460	[405 885 405 675]	[1035 1515  405  675]
541.915	1.0	1099639	1100639	ELCue	ANTI	84	4	False	red	460	[405 885 405 675]	[1035 1515  405  675]
543.332	2.0	1101056	1103090	ShowFixation	ANTI	85	4	False	red	180	[1035 1515  405  675]	[405 885 405 675]
545.366	0.2	1103090	1103326	BlankScreen	ANTI	85	4	False	red	180	[1035 1515  405  675]	[405 885 405 675]
545.602	1.0	1103326	1104326	ELCue	ANTI	85	4	False	red	180	[1035 1515  405  675]	[405 885 405 675]
547.026	6.0	1104750	1110777	ShowFixation	ANTI	86	4	False	red	180	[1035 1515  405  675]	[405 885 405 675]
553.053	0.2	1110777	1111017	BlankScreen	ANTI	86	4	False	red	180	[1035 1515  405  675]	[405 885 405 675]
553.293	1.0	1111017	1112017	ELCue	ANTI	86	4	False	red	180	[1035 1515  405  675]	[405 885 405 675]
554.712	6.0	1112436	1118468	ShowFixation	VGS	87	4	False	lime	460	[1035 1515  405  675]	[405 885 405 675]
560.744	0.2	1118468	1118708	BlankScreen	VGS	87	4	False	lime	460	[1035 1515  405  675]	[405 885 405 675]
560.984	1.0	1118708	1119708	ELCue	VGS	87	4	False	lime	460	[1035 1515  405  675]	[405 885 405 675]
562.405	6.0	1120129	1126159	ShowFixation	VGS	88	4	False	lime	40	[ 90 570 405 675]	[1350 1830  405  675]
568.435	0.2	1126159	1126398	BlankScreen	VGS	88	4	False	lime	40	[ 90 570 405 675]	[1350 1830  405  675]
568.674	1.0	1126398	1127398	ELCue	VGS	88	4	False	lime	40	[ 90 570 405 675]	[1350 1830  405  675]
570.1	2.0	1127824	1129850	ShowFixation	ANTI	89	4	False	red	180	[1035 1515  405  675]	[405 885 405 675]
572.127	0.2	1129851	1130085	BlankScreen	ANTI	89	4	False	red	180	[1035 1515  405  675]	[405 885 405 675]
572.361	1.0	1130085	1131085	ELCue	ANTI	89	4	False	red	180	[1035 1515  405  675]	[405 885 405 675]
573.782	2.0	1131506	1133537	ShowFixation	VGS	90	4	False	lime	600	[1350 1830  405  675]	[ 90 570 405 675]
575.813	0.2	1133537	1133772	BlankScreen	VGS	90	4	False	lime	600	[1350 1830  405  675]	[ 90 570 405 675]
576.048	1.0	1133772	1134772	ELCue	VGS	90	4	False	lime	600	[1350 1830  405  675]	[ 90 570 405 675]
577.473	2.0	1135197	1137225	ShowFixation	VGS	91	4	False	lime	40	[ 90 570 405 675]	[1350 1830  405  675]
579.501	0.2	1137225	1137459	BlankScreen	VGS	91	4	False	lime	40	[ 90 570 405 675]	[1350 1830  405  675]
579.735	1.0	1137459	1138459	ELCue	VGS	91	4	False	lime	40	[ 90 570 405 675]	[1350 1830  405  675]
581.16	2.0	1138884	1140911	ShowFixation	VGS	92	4	False	lime	460	[1035 1515  405  675]	[405 885 405 675]
583.188	0.2	1140912	1141147	BlankScreen	VGS	92	4	False	lime	460	[1035 1515  405  675]	[405 885 405 675]
583.423	1.0	1141147	1142147	ELCue	VGS	92	4	False	lime	460	[1035 1515  405  675]	[405 885 405 675]
584.841	6.0	1142565	1148599	ShowFixation	VGS	93	4	False	lime	600	[1350 1830  405  675]	[ 90 570 405 675]
590.875	0.2	1148599	1148838	BlankScreen	VGS	93	4	False	lime	600	[1350 1830  405  675]	[ 90 570 405 675]
591.114	1.0	1148838	1149838	ELCue	VGS	93	4	False	lime	600	[1350 1830  405  675]	[ 90 570 405 675]
592.536	6.0	1150260	1156290	ShowFixation	VGS	94	4	False	lime	180	[405 885 405 675]	[1035 1515  405  675]
598.566	0.2	1156290	1156529	BlankScreen	VGS	94	4	False	lime	180	[405 885 405 675]	[1035 1515  405  675]
598.805	1.0	1156529	1157529	ELCue	VGS	94	4	False	lime	180	[405 885 405 675]	[1035 1515  405  675]
600.228	2.0	1157952	1159981	ShowFixation	VGS	95	4	False	lime	180	[405 885 405 675]	[1035 1515  405  675]
602.257	0.2	1159981	1160216	BlankScreen	VGS	95	4	False	lime	180	[405 885 405 675]	[1035 1515  405  675]
602.492	1.0	1160216	1161216	ELCue	VGS	95	4	False	lime	180	[405 885 405 675]	[1035 1515  405  675]
603.894	2.0	1161618	1163651	ShowFixation	ANTI	96	4	False	red	600	[ 90 570 405 675]	[1350 1830  405  675]
605.927	0.2	1163651	1163887	BlankScreen	ANTI	96	4	False	red	600	[ 90 570 405 675]	[1350 1830  405  675]
606.163	1.0	1163887	1164887	ELCue	ANTI	96	4	False	red	600	[ 90 570 405 675]	[1350 1830  405  675]
607.582	6.0	1165306	1171338	ShowFixation	VGS	97	4	False	lime	180	[405 885 405 675]	[1035 1515  405  675]
613.614	0.2	1171338	1171577	BlankScreen	VGS	97	4	False	lime	180	[405 885 405 675]	[1035 1515  405  675]
613.853	1.0	1171577	1172577	ELCue	VGS	97	4	False	lime	180	[405 885 405 675]	[1035 1515  405  675]
615.275	2.0	1172999	1175029	ShowFixation	ANTI	98	4	False	red	600	[ 90 570 405 675]	[1350 1830  405  675]
617.305	0.2	1175029	1175264	BlankScreen	ANTI	98	4	False	red	600	[ 90 570 405 675]	[1350 1830  405  675]
617.54	1.0	1175264	1176264	ELCue	ANTI	98	4	False	red	600	[ 90 570 405 675]	[1350 1830  405  675]
618.926	6.0	1176650	1182683	ShowFixation	ANTI	99	4	False	red	460	[405 885 405 675]	[1035 1515  405  675]
624.959	0.2	1182683	1182922	BlankScreen	ANTI	99	4	False	red	460	[405 885 405 675]	[1035 1515  405  675]
625.198	1.0	1182922	1183922	ELCue	ANTI	99	4	False	red	460	[405 885 405 675]	[1035 1515  405  675]
626.604	2.0	1184328	1186357	ShowFixation	VGS	100	4	False	lime	180	[405 885 405 675]	[1035 1515  405  675]
628.633	0.2	1186357	1186592	BlankScreen	VGS	100	4	False	lime	180	[405 885 405 675]	[1035 1515  405  675]
628.868	1.0	1186592	1187592	ELCue	VGS	100	4	False	lime	180	[405 885 405 675]	[1035 1515  405  675]
630.291	6.0	1188015	1194044	ShowFixation	VGS	101	4	False	lime	600	[1350 1830  405  675]	[ 90 570 405 675]
636.32	0.2	1194044	1194283	BlankScreen	VGS	101	4	False	lime	600	[1350 1830  405  675]	[ 90 570 405 675]
636.559	1.0	1194283	1195283	ELCue	VGS	101	4	False	lime	600	[1350 1830  405  675]	[ 90 570 405 675]
637.978	6.0	1195702	1201735	ShowFixation	VGS	102	4	False	lime	460	[1035 1515  405  675]	[405 885 405 675]
644.011	0.2	1201735	1201974	BlankScreen	VGS	102	4	False	lime	460	[1035 1515  405  675]	[405 885 405 675]
644.25	1.0	1201974	1202974	ELCue	VGS	102	4	False	lime	460	[1035 1515  405  675]	[405 885 405 675]
645.672	6.0	1203396	1209426	ShowFixation	ANTI	103	4	False	red	40	[1350 1830  405  675]	[ 90 570 405 675]
651.702	0.2	1209426	1209665	BlankScreen	ANTI	103	4	False	red	40	[1350 1830  405  675]	[ 90 570 405 675]
651.941	1.0	1209665	1210665	ELCue	ANTI	103	4	False	red	40	[1350 1830  405  675]	[ 90 570 405 675]
653.36	2.0	1211084	1213117	ShowFixation	ANTI	104	4	False	red	40	[1350 1830  405  675]	[ 90 570 405 675]
655.393	0.2	1213117	1213352	BlankScreen	ANTI	104	4	False	red	40	[1350 1830  405  675]	[ 90 570 405 675]
655.628	1.0	1213352	1214352	ELCue	ANTI	104	4	False	red	40	[1350 1830  405  675]	[ 90 570 405 675]
657.049	6.0	1214773	1220804	ShowFixation	ANTI	105	4	False	red	180	[1035 1515  405  675]	[405 885 405 675]
663.08	0.2	1220804	1221043	BlankScreen	ANTI	105	4	False	red	180	[1035 1515  405  675]	[405 885 405 675]
663.319	1.0	1221043	1222043	ELCue	ANTI	105	4	False	red	180	[1035 1515  405  675]	[405 885 405 675]
664.739	2.0	1222463	1224495	ShowFixation	ANTI	106	4	False	red	40	[1350 1830  405  675]	[ 90 570 405 675]
666.771	0.2	1224495	1224730	BlankScreen	ANTI	106	4	False	red	40	[1350 1830  405  675]	[ 90 570 405 675]
667.006	1.0	1224730	1225730	ELCue	ANTI	106	4	False	red	40	[1350 1830  405  675]	[ 90 570 405 675]
668.428	2.0	1226152	1228182	ShowFixation	ANTI	107	4	False	red	460	[405 885 405 675]	[1035 1515  405  675]
670.458	0.2	1228182	1228417	BlankScreen	ANTI	107	4	False	red	460	[405 885 405 675]	[1035 1515  405  675]
670.693	1.0	1228417	1229417	ELCue	ANTI	107	4	False	red	460	[405 885 405 675]	[1035 1515  405  675]
672.115	6.0	1229839	1235869	ShowFixation	ANTI	108	4	False	red	600	[ 90 570 405 675]	[1350 1830  405  675]
678.145	0.2	1235869	1236108	BlankScreen	ANTI	108	4	False	red	600	[ 90 570 405 675]	[1350 1830  405  675]
678.384	1.0	1236108	1237108	ELCue	ANTI	108	4	False	red	600	[ 90 570 405 675]	[1350 1830  405  675]
679.803	6.0	1237527	1243559	ShowFixation	ANTI	109	4	False	red	40	[1350 1830  405  675]	[ 90 570 405 675]
685.835	0.2	1243559	1243799	BlankScreen	ANTI	109	4	False	red	40	[1350 1830  405  675]	[ 90 570 405 675]
686.075	1.0	1243799	1244799	ELCue	ANTI	109	4	False	red	40	[1350 1830  405  675]	[ 90 570 405 675]
687.492	6.0	1245216	1251250	ShowFixation	ANTI	110	4	False	red	460	[405 885 405 675]	[1035 1515  405  675]
693.526	0.2	1251250	1251490	BlankScreen	ANTI	110	4	False	red	460	[405 885 405 675]	[1035 1515  405  675]
693.766	1.0	1251490	1252490	ELCue	ANTI	110	4	False	red	460	[405 885 405 675]	[1035 1515  405  675]
695.191	6.0	1252915	1258941	ShowFixation	VGS	111	4	False	lime	40	[ 90 570 405 675]	[1350 1830  405  675]
701.217	0.2	1258941	1259181	BlankScreen	VGS	111	4	False	lime	40	[ 90 570 405 675]	[1350 1830  405  675]
701.457	1.0	1259181	1260181	ELCue	VGS	111	4	False	lime	40	[ 90 570 405 675]	[1350 1830  405  675]
702.878	6.0	1260602	1266632	ShowFixation	ANTI	112	4	False	red	600	[ 90 570 405 675]	[1350 1830  405  675]
708.908	0.2	1266632	1266873	BlankScreen	ANTI	112	4	False	red	600	[ 90 570 405 675]	[1350 1830  405  675]
709.149	1.0	1266873	1267873	ELCue	ANTI	112	4	False	red	600	[ 90 570 405 675]	[1350 1830  405  675]
