onset	duration	startTime	stopTime	eventIdentifier	trial_type	trial_number	block_number	is_practice	fixation_color	cue_side	aoi_correct	aoi_incorrect
0.142	2.0	827471	829501	ShowFixation	ANTI	1	1	True	red	180	[1035 1515  405  675]	[405 885 405 675]
2.172	0.2	829501	829737	BlankScreen	ANTI	1	1	True	red	180	[1035 1515  405  675]	[405 885 405 675]
2.408	1.0	829737	830777	ELCue	ANTI	1	1	True	red	180	[1035 1515  405  675]	[405 885 405 675]
3.89	6.0	831219	837822	ShowFixation	VGS	2	1	True	lime	40	[ 90 570 405 675]	[1350 1830  405  675]
10.493	0.2	837822	838063	BlankScreen	VGS	2	1	True	lime	40	[ 90 570 405 675]	[1350 1830  405  675]
10.734	1.0	838063	839102	ELCue	VGS	2	1	True	lime	40	[ 90 570 405 675]	[1350 1830  405  675]
12.179	2.0	839508	842147	ShowFixation	VGS	3	1	True	lime	180	[405 885 405 675]	[1035 1515  405  675]
14.818	0.2	842147	842383	BlankScreen	VGS	3	1	True	lime	180	[405 885 405 675]	[1035 1515  405  675]
15.054	1.0	842383	843423	ELCue	VGS	3	1	True	lime	180	[405 885 405 675]	[1035 1515  405  675]
16.497	6.0	843826	850451	ShowFixation	ANTI	4	1	True	red	460	[405 885 405 675]	[1035 1515  405  675]
23.122	0.2	850451	850691	BlankScreen	ANTI	4	1	True	red	460	[405 885 405 675]	[1035 1515  405  675]
23.362	1.0	850691	851728	ELCue	ANTI	4	1	True	red	460	[405 885 405 675]	[1035 1515  405  675]
24.794	2.0	852123	854743	ShowFixation	VGS	5	1	True	lime	40	[ 90 570 405 675]	[1350 1830  405  675]
27.414	0.2	854743	854962	BlankScreen	VGS	5	1	True	lime	40	[ 90 570 405 675]	[1350 1830  405  675]
27.633	1.0	854962	855985	ELCue	VGS	5	1	True	lime	40	[ 90 570 405 675]	[1350 1830  405  675]
29.066	2.0	856395	859031	ShowFixation	VGS	6	1	True	lime	460	[1035 1515  405  675]	[405 885 405 675]
31.702	0.2	859031	859266	BlankScreen	VGS	6	1	True	lime	460	[1035 1515  405  675]	[405 885 405 675]
31.937	1.0	859266	860306	ELCue	VGS	6	1	True	lime	460	[1035 1515  405  675]	[405 885 405 675]
33.381	2.0	860710	863351	ShowFixation	ANTI	7	1	True	red	600	[ 90 570 405 675]	[1350 1830  405  675]
36.022	0.2	863351	863587	BlankScreen	ANTI	7	1	True	red	600	[ 90 570 405 675]	[1350 1830  405  675]
36.258	1.0	863587	864624	ELCue	ANTI	7	1	True	red	600	[ 90 570 405 675]	[1350 1830  405  675]
37.669	2.0	864998	867656	ShowFixation	ANTI	8	1	True	red	460	[405 885 405 675]	[1035 1515  405  675]
40.327	0.2	867656	867891	BlankScreen	ANTI	8	1	True	red	460	[405 885 405 675]	[1035 1515  405  675]
40.562	1.0	867891	868931	ELCue	ANTI	8	1	True	red	460	[405 885 405 675]	[1035 1515  405  675]
42.0	6.0	869329	875960	ShowFixation	VGS	9	1	True	lime	600	[1350 1830  405  675]	[ 90 570 405 675]
48.631	0.2	875960	876199	BlankScreen	VGS	9	1	True	lime	600	[1350 1830  405  675]	[ 90 570 405 675]
48.87	1.0	876199	877239	ELCue	VGS	9	1	True	lime	600	[1350 1830  405  675]	[ 90 570 405 675]
50.319	6.0	877648	884268	ShowFixation	ANTI	10	1	True	red	40	[1350 1830  405  675]	[ 90 570 405 675]
56.939	0.2	884268	884507	BlankScreen	ANTI	10	1	True	red	40	[1350 1830  405  675]	[ 90 570 405 675]
57.178	1.0	884507	885548	ELCue	ANTI	10	1	True	red	40	[1350 1830  405  675]	[ 90 570 405 675]
58.625	6.0	885954	892593	ShowFixation	VGS	11	1	True	lime	460	[1035 1515  405  675]	[405 885 405 675]
65.264	0.2	892593	892832	BlankScreen	VGS	11	1	True	lime	460	[1035 1515  405  675]	[405 885 405 675]
65.503	1.0	892832	893873	ELCue	VGS	11	1	True	lime	460	[1035 1515  405  675]	[405 885 405 675]
66.913	6.0	894242	900918	ShowFixation	ANTI	12	1	True	red	600	[ 90 570 405 675]	[1350 1830  405  675]
73.589	0.2	900918	901157	BlankScreen	ANTI	12	1	True	red	600	[ 90 570 405 675]	[1350 1830  405  675]
73.828	1.0	901157	902198	ELCue	ANTI	12	1	True	red	600	[ 90 570 405 675]	[1350 1830  405  675]
75.276	6.0	902605	909243	ShowFixation	VGS	13	1	True	lime	180	[405 885 405 675]	[1035 1515  405  675]
81.914	0.2	909243	909482	BlankScreen	VGS	13	1	True	lime	180	[405 885 405 675]	[1035 1515  405  675]
82.154	1.0	909483	910523	ELCue	VGS	13	1	True	lime	180	[405 885 405 675]	[1035 1515  405  675]
83.598	2.0	910927	913569	ShowFixation	VGS	14	1	True	lime	600	[1350 1830  405  675]	[ 90 570 405 675]
86.24	0.2	913569	913803	BlankScreen	VGS	14	1	True	lime	600	[1350 1830  405  675]	[ 90 570 405 675]
86.475	1.0	913804	914844	ELCue	VGS	14	1	True	lime	600	[1350 1830  405  675]	[ 90 570 405 675]
87.914	6.0	915243	921890	ShowFixation	ANTI	15	1	True	red	180	[1035 1515  405  675]	[405 885 405 675]
94.561	0.2	921890	922129	BlankScreen	ANTI	15	1	True	red	180	[1035 1515  405  675]	[405 885 405 675]
94.8	1.0	922129	923168	ELCue	ANTI	15	1	True	red	180	[1035 1515  405  675]	[405 885 405 675]
96.243	2.0	923572	926198	ShowFixation	ANTI	16	1	True	red	40	[1350 1830  405  675]	[ 90 570 405 675]
98.869	0.2	926198	926416	BlankScreen	ANTI	16	1	True	red	40	[1350 1830  405  675]	[ 90 570 405 675]
99.087	1.0	926416	927439	ELCue	ANTI	16	1	True	red	40	[1350 1830  405  675]	[ 90 570 405 675]
114.628	2.0	941957	943982	ShowFixation	VGS	17	2	False	lime	460	[1035 1515  405  675]	[405 885 405 675]
116.653	0.2	943982	944217	BlankScreen	VGS	17	2	False	lime	460	[1035 1515  405  675]	[405 885 405 675]
116.888	1.0	944217	945217	ELCue	VGS	17	2	False	lime	460	[1035 1515  405  675]	[405 885 405 675]
118.298	2.0	945627	947652	ShowFixation	ANTI	18	2	False	red	600	[ 90 570 405 675]	[1350 1830  405  675]
120.323	0.2	947652	947888	BlankScreen	ANTI	18	2	False	red	600	[ 90 570 405 675]	[1350 1830  405  675]
120.559	1.0	947888	948888	ELCue	ANTI	18	2	False	red	600	[ 90 570 405 675]	[1350 1830  405  675]
121.971	2.0	949300	951339	ShowFixation	VGS	19	2	False	lime	600	[1350 1830  405  675]	[ 90 570 405 675]
124.01	0.2	951339	951574	BlankScreen	VGS	19	2	False	lime	600	[1350 1830  405  675]	[ 90 570 405 675]
124.245	1.0	951574	952574	ELCue	VGS	19	2	False	lime	600	[1350 1830  405  675]	[ 90 570 405 675]
125.614	2.0	952943	954976	ShowFixation	ANTI	20	2	False	red	180	[1035 1515  405  675]	[405 885 405 675]
127.647	0.2	954976	955211	BlankScreen	ANTI	20	2	False	red	180	[1035 1515  405  675]	[405 885 405 675]
127.882	1.0	955211	956211	ELCue	ANTI	20	2	False	red	180	[1035 1515  405  675]	[405 885 405 675]
129.291	2.0	956620	958646	ShowFixation	ANTI	21	2	False	red	460	[405 885 405 675]	[1035 1515  405  675]
131.317	0.2	958646	958882	BlankScreen	ANTI	21	2	False	red	460	[405 885 405 675]	[1035 1515  405  675]
131.553	1.0	958882	959882	ELCue	ANTI	21	2	False	red	460	[405 885 405 675]	[1035 1515  405  675]
132.967	6.0	960296	966333	ShowFixation	ANTI	22	2	False	red	180	[1035 1515  405  675]	[405 885 405 675]
139.004	0.2	966333	966573	BlankScreen	ANTI	22	2	False	red	180	[1035 1515  405  675]	[405 885 405 675]
139.244	1.0	966573	967573	ELCue	ANTI	22	2	False	red	180	[1035 1515  405  675]	[405 885 405 675]
140.616	6.0	967945	973974	ShowFixation	ANTI	23	2	False	red	600	[ 90 570 405 675]	[1350 1830  405  675]
146.645	0.2	973974	974213	BlankScreen	ANTI	23	2	False	red	600	[ 90 570 405 675]	[1350 1830  405  675]
146.884	1.0	974213	975213	ELCue	ANTI	23	2	False	red	600	[ 90 570 405 675]	[1350 1830  405  675]
148.294	6.0	975623	981648	ShowFixation	VGS	24	2	False	lime	40	[ 90 570 405 675]	[1350 1830  405  675]
154.319	0.2	981648	981888	BlankScreen	VGS	24	2	False	lime	40	[ 90 570 405 675]	[1350 1830  405  675]
154.559	1.0	981888	982888	ELCue	VGS	24	2	False	lime	40	[ 90 570 405 675]	[1350 1830  405  675]
155.97	6.0	983299	989339	ShowFixation	ANTI	25	2	False	red	460	[405 885 405 675]	[1035 1515  405  675]
162.01	0.2	989339	989579	BlankScreen	ANTI	25	2	False	red	460	[405 885 405 675]	[1035 1515  405  675]
162.25	1.0	989579	990579	ELCue	ANTI	25	2	False	red	460	[405 885 405 675]	[1035 1515  405  675]
163.654	6.0	990983	997014	ShowFixation	VGS	26	2	False	lime	180	[405 885 405 675]	[1035 1515  405  675]
169.685	0.2	997014	997253	BlankScreen	VGS	26	2	False	lime	180	[405 885 405 675]	[1035 1515  405  675]
169.924	1.0	997253	998253	ELCue	VGS	26	2	False	lime	180	[405 885 405 675]	[1035 1515  405  675]
171.336	6.0	998665	1004704	ShowFixation	ANTI	27	2	False	red	180	[1035 1515  405  675]	[405 885 405 675]
177.375	0.2	1004704	1004944	BlankScreen	ANTI	27	2	False	red	180	[1035 1515  405  675]	[405 885 405 675]
177.615	1.0	1004944	1005944	ELCue	ANTI	27	2	False	red	180	[1035 1515  405  675]	[405 885 405 675]
179.025	6.0	1006354	1012379	ShowFixation	ANTI	28	2	False	red	40	[1350 1830  405  675]	[ 90 570 405 675]
185.05	0.2	1012379	1012618	BlankScreen	ANTI	28	2	False	red	40	[1350 1830  405  675]	[ 90 570 405 675]
185.289	1.0	1012618	1013618	ELCue	ANTI	28	2	False	red	40	[1350 1830  405  675]	[ 90 570 405 675]
186.699	2.0	1014028	1016053	ShowFixation	ANTI	29	2	False	red	180	[1035 1515  405  675]	[405 885 405 675]
188.724	0.2	1016053	1016288	BlankScreen	ANTI	29	2	False	red	180	[1035 1515  405  675]	[405 885 405 675]
188.959	1.0	1016288	1017288	ELCue	ANTI	29	2	False	red	180	[1035 1515  405  675]	[405 885 405 675]
190.369	2.0	1017698	1019723	ShowFixation	VGS	30	2	False	lime	460	[1035 1515  405  675]	[405 885 405 675]
192.394	0.2	1019723	1019959	BlankScreen	VGS	30	2	False	lime	460	[1035 1515  405  675]	[405 885 405 675]
192.63	1.0	1019959	1020959	ELCue	VGS	30	2	False	lime	460	[1035 1515  405  675]	[405 885 405 675]
194.034	2.0	1021363	1023393	ShowFixation	VGS	31	2	False	lime	180	[405 885 405 675]	[1035 1515  405  675]
196.064	0.2	1023393	1023629	BlankScreen	VGS	31	2	False	lime	180	[405 885 405 675]	[1035 1515  405  675]
196.301	1.0	1023630	1024630	ELCue	VGS	31	2	False	lime	180	[405 885 405 675]	[1035 1515  405  675]
197.706	6.0	1025035	1031064	ShowFixation	VGS	32	2	False	lime	460	[1035 1515  405  675]	[405 885 405 675]
203.735	0.2	1031064	1031303	BlankScreen	VGS	32	2	False	lime	460	[1035 1515  405  675]	[405 885 405 675]
203.974	1.0	1031303	1032303	ELCue	VGS	32	2	False	lime	460	[1035 1515  405  675]	[405 885 405 675]
205.386	6.0	1032715	1038755	ShowFixation	VGS	33	2	False	lime	460	[1035 1515  405  675]	[405 885 405 675]
211.426	0.2	1038755	1038994	BlankScreen	VGS	33	2	False	lime	460	[1035 1515  405  675]	[405 885 405 675]
211.665	1.0	1038994	1039994	ELCue	VGS	33	2	False	lime	460	[1035 1515  405  675]	[405 885 405 675]
213.075	6.0	1040404	1046429	ShowFixation	VGS	34	2	False	lime	600	[1350 1830  405  675]	[ 90 570 405 675]
219.1	0.2	1046429	1046668	BlankScreen	VGS	34	2	False	lime	600	[1350 1830  405  675]	[ 90 570 405 675]
219.339	1.0	1046668	1047668	ELCue	VGS	34	2	False	lime	600	[1350 1830  405  675]	[ 90 570 405 675]
220.751	2.0	1048080	1050120	ShowFixation	ANTI	35	2	False	red	40	[1350 1830  405  675]	[ 90 570 405 675]
222.791	0.2	1050120	1050355	BlankScreen	ANTI	35	2	False	red	40	[1350 1830  405  675]	[ 90 570 405 675]
223.026	1.0	1050355	1051355	ELCue	ANTI	35	2	False	red	40	[1350 1830  405  675]	[ 90 570 405 675]
224.427	2.0	1051756	1053790	ShowFixation	VGS	36	2	False	lime	40	[ 90 570 405 675]	[1350 1830  405  675]
226.462	0.2	1053791	1054025	BlankScreen	VGS	36	2	False	lime	40	[ 90 570 405 675]	[1350 1830  405  675]
226.697	1.0	1054026	1055026	ELCue	VGS	36	2	False	lime	40	[ 90 570 405 675]	[1350 1830  405  675]
228.07	6.0	1055399	1061427	ShowFixation	VGS	37	2	False	lime	180	[405 885 405 675]	[1035 1515  405  675]
234.099	0.2	1061428	1061667	BlankScreen	VGS	37	2	False	lime	180	[405 885 405 675]	[1035 1515  405  675]
234.338	1.0	1061667	1062667	ELCue	VGS	37	2	False	lime	180	[405 885 405 675]	[1035 1515  405  675]
235.746	2.0	1063075	1065101	ShowFixation	VGS	38	2	False	lime	180	[405 885 405 675]	[1035 1515  405  675]
237.773	0.2	1065102	1065338	BlankScreen	VGS	38	2	False	lime	180	[405 885 405 675]	[1035 1515  405  675]
238.009	1.0	1065338	1066338	ELCue	VGS	38	2	False	lime	180	[405 885 405 675]	[1035 1515  405  675]
239.42	6.0	1066749	1072789	ShowFixation	VGS	39	2	False	lime	40	[ 90 570 405 675]	[1350 1830  405  675]
245.46	0.2	1072789	1073029	BlankScreen	VGS	39	2	False	lime	40	[ 90 570 405 675]	[1350 1830  405  675]
245.7	1.0	1073029	1074029	ELCue	VGS	39	2	False	lime	40	[ 90 570 405 675]	[1350 1830  405  675]
247.106	2.0	1074435	1076463	ShowFixation	ANTI	40	2	False	red	460	[405 885 405 675]	[1035 1515  405  675]
249.134	0.2	1076463	1076699	BlankScreen	ANTI	40	2	False	red	460	[405 885 405 675]	[1035 1515  405  675]
249.37	1.0	1076699	1077699	ELCue	ANTI	40	2	False	red	460	[405 885 405 675]	[1035 1515  405  675]
250.78	6.0	1078109	1084134	ShowFixation	ANTI	41	2	False	red	600	[ 90 570 405 675]	[1350 1830  405  675]
256.805	0.2	1084134	1084373	BlankScreen	ANTI	41	2	False	red	600	[ 90 570 405 675]	[1350 1830  405  675]
257.044	1.0	1084373	1085373	ELCue	ANTI	41	2	False	red	600	[ 90 570 405 675]	[1350 1830  405  675]
258.455	2.0	1085784	1087825	ShowFixation	VGS	42	2	False	lime	40	[ 90 570 405 675]	[1350 1830  405  675]
260.496	0.2	1087825	1088060	BlankScreen	VGS	42	2	False	lime	40	[ 90 570 405 675]	[1350 1830  405  675]
260.731	1.0	1088060	1089060	ELCue	VGS	42	2	False	lime	40	[ 90 570 405 675]	[1350 1830  405  675]
262.143	6.0	1089472	1095512	ShowFixation	ANTI	43	2	False	red	460	[405 885 405 675]	[1035 1515  405  675]
268.183	0.2	1095512	1095751	BlankScreen	ANTI	43	2	False	red	460	[405 885 405 675]	[1035 1515  405  675]
268.422	1.0	1095751	1096751	ELCue	ANTI	43	2	False	red	460	[405 885 405 675]	[1035 1515  405  675]
269.829	6.0	1097158	1103186	ShowFixation	ANTI	44	2	False	red	40	[1350 1830  405  675]	[ 90 570 405 675]
275.857	0.2	1103186	1103425	BlankScreen	ANTI	44	2	False	red	40	[1350 1830  405  675]	[ 90 570 405 675]
276.096	1.0	1103425	1104425	ELCue	ANTI	44	2	False	red	40	[1350 1830  405  675]	[ 90 570 405 675]
277.504	6.0	1104833	1110860	ShowFixation	VGS	45	2	False	lime	600	[1350 1830  405  675]	[ 90 570 405 675]
283.531	0.2	1110860	1111099	BlankScreen	VGS	45	2	False	lime	600	[1350 1830  405  675]	[ 90 570 405 675]
283.77	1.0	1111099	1112099	ELCue	VGS	45	2	False	lime	600	[1350 1830  405  675]	[ 90 570 405 675]
285.175	2.0	1112504	1114534	ShowFixation	ANTI	46	2	False	red	600	[ 90 570 405 675]	[1350 1830  405  675]
287.205	0.2	1114534	1114770	BlankScreen	ANTI	46	2	False	red	600	[ 90 570 405 675]	[1350 1830  405  675]
287.441	1.0	1114770	1115770	ELCue	ANTI	46	2	False	red	600	[ 90 570 405 675]	[1350 1830  405  675]
288.848	2.0	1116177	1118205	ShowFixation	ANTI	47	2	False	red	40	[1350 1830  405  675]	[ 90 570 405 675]
290.876	0.2	1118205	1118440	BlankScreen	ANTI	47	2	False	red	40	[1350 1830  405  675]	[ 90 570 405 675]
291.111	1.0	1118440	1119440	ELCue	ANTI	47	2	False	red	40	[1350 1830  405  675]	[ 90 570 405 675]
292.518	2.0	1119847	1121875	ShowFixation	VGS	48	2	False	lime	600	[1350 1830  405  675]	[ 90 570 405 675]
294.546	0.2	1121875	1122110	BlankScreen	VGS	48	2	False	lime	600	[1350 1830  405  675]	[ 90 570 405 675]
294.781	1.0	1122110	1123110	ELCue	VGS	48	2	False	lime	600	[1350 1830  405  675]	[ 90 570 405 675]
348.362	2.0	1175691	1177730	ShowFixation	ANTI	49	3	False	red	40	[1350 1830  405  675]	[ 90 570 405 675]
350.401	0.2	1177730	1177965	BlankScreen	ANTI	49	3	False	red	40	[1350 1830  405  675]	[ 90 570 405 675]
350.636	1.0	1177965	1178965	ELCue	ANTI	49	3	False	red	40	[1350 1830  405  675]	[ 90 570 405 675]
352.123	6.0	1179452	1185484	ShowFixation	ANTI	50	3	False	red	600	[ 90 570 405 675]	[1350 1830  405  675]
358.156	0.2	1185485	1185723	BlankScreen	ANTI	50	3	False	red	600	[ 90 570 405 675]	[1350 1830  405  675]
358.394	1.0	1185723	1186723	ELCue	ANTI	50	3	False	red	600	[ 90 570 405 675]	[1350 1830  405  675]
359.805	6.0	1187134	1193175	ShowFixation	ANTI	51	3	False	red	180	[1035 1515  405  675]	[405 885 405 675]
365.846	0.2	1193175	1193414	BlankScreen	ANTI	51	3	False	red	180	[1035 1515  405  675]	[405 885 405 675]
366.085	1.0	1193414	1194414	ELCue	ANTI	51	3	False	red	180	[1035 1515  405  675]	[405 885 405 675]
367.477	2.0	1194806	1196832	ShowFixation	ANTI	52	3	False	red	180	[1035 1515  405  675]	[405 885 405 675]
369.503	0.2	1196832	1197068	BlankScreen	ANTI	52	3	False	red	180	[1035 1515  405  675]	[405 885 405 675]
369.739	1.0	1197068	1198068	ELCue	ANTI	52	3	False	red	180	[1035 1515  405  675]	[405 885 405 675]
371.146	6.0	1198475	1204502	ShowFixation	VGS	53	3	False	lime	180	[405 885 405 675]	[1035 1515  405  675]
377.174	0.2	1204503	1204743	BlankScreen	VGS	53	3	False	lime	180	[405 885 405 675]	[1035 1515  405  675]
377.414	1.0	1204743	1205743	ELCue	VGS	53	3	False	lime	180	[405 885 405 675]	[1035 1515  405  675]
378.819	2.0	1206148	1208178	ShowFixation	VGS	54	3	False	lime	460	[1035 1515  405  675]	[405 885 405 675]
380.849	0.2	1208178	1208413	BlankScreen	VGS	54	3	False	lime	460	[1035 1515  405  675]	[405 885 405 675]
381.084	1.0	1208413	1209413	ELCue	VGS	54	3	False	lime	460	[1035 1515  405  675]	[405 885 405 675]
382.494	2.0	1209823	1211848	ShowFixation	ANTI	55	3	False	red	180	[1035 1515  405  675]	[405 885 405 675]
384.519	0.2	1211848	1212083	BlankScreen	ANTI	55	3	False	red	180	[1035 1515  405  675]	[405 885 405 675]
384.754	1.0	1212083	1213083	ELCue	ANTI	55	3	False	red	180	[1035 1515  405  675]	[405 885 405 675]
386.166	2.0	1213495	1215535	ShowFixation	VGS	56	3	False	lime	600	[1350 1830  405  675]	[ 90 570 405 675]
388.206	0.2	1215535	1215770	BlankScreen	VGS	56	3	False	lime	600	[1350 1830  405  675]	[ 90 570 405 675]
388.441	1.0	1215770	1216770	ELCue	VGS	56	3	False	lime	600	[1350 1830  405  675]	[ 90 570 405 675]
389.851	6.0	1217180	1223205	ShowFixation	ANTI	57	3	False	red	600	[ 90 570 405 675]	[1350 1830  405  675]
395.876	0.2	1223205	1223444	BlankScreen	ANTI	57	3	False	red	600	[ 90 570 405 675]	[1350 1830  405  675]
396.115	1.0	1223444	1224444	ELCue	ANTI	57	3	False	red	600	[ 90 570 405 675]	[1350 1830  405  675]
397.527	6.0	1224856	1230896	ShowFixation	ANTI	58	3	False	red	460	[405 885 405 675]	[1035 1515  405  675]
403.567	0.2	1230896	1231135	BlankScreen	ANTI	58	3	False	red	460	[405 885 405 675]	[1035 1515  405  675]
403.806	1.0	1231135	1232135	ELCue	ANTI	58	3	False	red	460	[405 885 405 675]	[1035 1515  405  675]
405.218	2.0	1232547	1234587	ShowFixation	VGS	59	3	False	lime	600	[1350 1830  405  675]	[ 90 570 405 675]
407.258	0.2	1234587	1234822	BlankScreen	VGS	59	3	False	lime	600	[1350 1830  405  675]	[ 90 570 405 675]
407.493	1.0	1234822	1235822	ELCue	VGS	59	3	False	lime	600	[1350 1830  405  675]	[ 90 570 405 675]
408.884	6.0	1236213	1242241	ShowFixation	VGS	60	3	False	lime	600	[1350 1830  405  675]	[ 90 570 405 675]
414.912	0.2	1242241	1242480	BlankScreen	VGS	60	3	False	lime	600	[1350 1830  405  675]	[ 90 570 405 675]
415.151	1.0	1242480	1243480	ELCue	VGS	60	3	False	lime	600	[1350 1830  405  675]	[ 90 570 405 675]
416.556	6.0	1243885	1249915	ShowFixation	ANTI	61	3	False	red	460	[405 885 405 675]	[1035 1515  405  675]
422.586	0.2	1249915	1250154	BlankScreen	ANTI	61	3	False	red	460	[405 885 405 675]	[1035 1515  405  675]
422.825	1.0	1250154	1251154	ELCue	ANTI	61	3	False	red	460	[405 885 405 675]	[1035 1515  405  675]
424.234	2.0	1251563	1253589	ShowFixation	ANTI	62	3	False	red	460	[405 885 405 675]	[1035 1515  405  675]
426.26	0.2	1253589	1253824	BlankScreen	ANTI	62	3	False	red	460	[405 885 405 675]	[1035 1515  405  675]
426.495	1.0	1253824	1254824	ELCue	ANTI	62	3	False	red	460	[405 885 405 675]	[1035 1515  405  675]
427.905	6.0	1255234	1261259	ShowFixation	VGS	63	3	False	lime	180	[405 885 405 675]	[1035 1515  405  675]
433.93	0.2	1261259	1261499	BlankScreen	VGS	63	3	False	lime	180	[405 885 405 675]	[1035 1515  405  675]
434.17	1.0	1261499	1262499	ELCue	VGS	63	3	False	lime	180	[405 885 405 675]	[1035 1515  405  675]
435.579	2.0	1262908	1264934	ShowFixation	VGS	64	3	False	lime	40	[ 90 570 405 675]	[1350 1830  405  675]
437.605	0.2	1264934	1265169	BlankScreen	VGS	64	3	False	lime	40	[ 90 570 405 675]	[1350 1830  405  675]
437.84	1.0	1265169	1266169	ELCue	VGS	64	3	False	lime	40	[ 90 570 405 675]	[1350 1830  405  675]
439.246	6.0	1266575	1272604	ShowFixation	VGS	65	3	False	lime	460	[1035 1515  405  675]	[405 885 405 675]
445.275	0.2	1272604	1272843	BlankScreen	VGS	65	3	False	lime	460	[1035 1515  405  675]	[405 885 405 675]
445.514	1.0	1272843	1273843	ELCue	VGS	65	3	False	lime	460	[1035 1515  405  675]	[405 885 405 675]
446.922	6.0	1274251	1280278	ShowFixation	ANTI	66	3	False	red	40	[1350 1830  405  675]	[ 90 570 405 675]
452.949	0.2	1280278	1280517	BlankScreen	ANTI	66	3	False	red	40	[1350 1830  405  675]	[ 90 570 405 675]
453.188	1.0	1280517	1281517	ELCue	ANTI	66	3	False	red	40	[1350 1830  405  675]	[ 90 570 405 675]
454.595	6.0	1281924	1287952	ShowFixation	ANTI	67	3	False	red	180	[1035 1515  405  675]	[405 885 405 675]
460.623	0.2	1287952	1288192	BlankScreen	ANTI	67	3	False	red	180	[1035 1515  405  675]	[405 885 405 675]
460.863	1.0	1288192	1289192	ELCue	ANTI	67	3	False	red	180	[1035 1515  405  675]	[405 885 405 675]
462.271	2.0	1289600	1291627	ShowFixation	VGS	68	3	False	lime	180	[405 885 405 675]	[1035 1515  405  675]
464.298	0.2	1291627	1291862	BlankScreen	VGS	68	3	False	lime	180	[405 885 405 675]	[1035 1515  405  675]
464.533	1.0	1291862	1292862	ELCue	VGS	68	3	False	lime	180	[405 885 405 675]	[1035 1515  405  675]
465.94	6.0	1293269	1299297	ShowFixation	VGS	69	3	False	lime	600	[1350 1830  405  675]	[ 90 570 405 675]
471.968	0.2	1299297	1299536	BlankScreen	VGS	69	3	False	lime	600	[1350 1830  405  675]	[ 90 570 405 675]
472.207	1.0	1299536	1300536	ELCue	VGS	69	3	False	lime	600	[1350 1830  405  675]	[ 90 570 405 675]
473.615	2.0	1300944	1302971	ShowFixation	ANTI	70	3	False	red	600	[ 90 570 405 675]	[1350 1830  405  675]
475.642	0.2	1302971	1303206	BlankScreen	ANTI	70	3	False	red	600	[ 90 570 405 675]	[1350 1830  405  675]
475.877	1.0	1303206	1304206	ELCue	ANTI	70	3	False	red	600	[ 90 570 405 675]	[1350 1830  405  675]
477.287	2.0	1304616	1306641	ShowFixation	ANTI	71	3	False	red	460	[405 885 405 675]	[1035 1515  405  675]
479.312	0.2	1306641	1306877	BlankScreen	ANTI	71	3	False	red	460	[405 885 405 675]	[1035 1515  405  675]
479.548	1.0	1306877	1307877	ELCue	ANTI	71	3	False	red	460	[405 885 405 675]	[1035 1515  405  675]
480.955	2.0	1308284	1310312	ShowFixation	ANTI	72	3	False	red	40	[1350 1830  405  675]	[ 90 570 405 675]
482.983	0.2	1310312	1310547	BlankScreen	ANTI	72	3	False	red	40	[1350 1830  405  675]	[ 90 570 405 675]
483.218	1.0	1310547	1311547	ELCue	ANTI	72	3	False	red	40	[1350 1830  405  675]	[ 90 570 405 675]
484.629	2.0	1311958	1313999	ShowFixation	VGS	73	3	False	lime	180	[405 885 405 675]	[1035 1515  405  675]
486.67	0.2	1313999	1314234	BlankScreen	VGS	73	3	False	lime	180	[405 885 405 675]	[1035 1515  405  675]
486.905	1.0	1314234	1315234	ELCue	VGS	73	3	False	lime	180	[405 885 405 675]	[1035 1515  405  675]
488.314	2.0	1315643	1317669	ShowFixation	VGS	74	3	False	lime	460	[1035 1515  405  675]	[405 885 405 675]
490.34	0.2	1317669	1317904	BlankScreen	VGS	74	3	False	lime	460	[1035 1515  405  675]	[405 885 405 675]
490.575	1.0	1317904	1318904	ELCue	VGS	74	3	False	lime	460	[1035 1515  405  675]	[405 885 405 675]
491.983	6.0	1319312	1325339	ShowFixation	VGS	75	3	False	lime	460	[1035 1515  405  675]	[405 885 405 675]
498.01	0.2	1325339	1325578	BlankScreen	VGS	75	3	False	lime	460	[1035 1515  405  675]	[405 885 405 675]
498.249	1.0	1325578	1326578	ELCue	VGS	75	3	False	lime	460	[1035 1515  405  675]	[405 885 405 675]
499.659	6.0	1326988	1333013	ShowFixation	VGS	76	3	False	lime	40	[ 90 570 405 675]	[1350 1830  405  675]
505.684	0.2	1333013	1333253	BlankScreen	VGS	76	3	False	lime	40	[ 90 570 405 675]	[1350 1830  405  675]
505.924	1.0	1333253	1334253	ELCue	VGS	76	3	False	lime	40	[ 90 570 405 675]	[1350 1830  405  675]
507.332	6.0	1334661	1340688	ShowFixation	VGS	77	3	False	lime	40	[ 90 570 405 675]	[1350 1830  405  675]
513.359	0.2	1340688	1340927	BlankScreen	VGS	77	3	False	lime	40	[ 90 570 405 675]	[1350 1830  405  675]
513.598	1.0	1340927	1341927	ELCue	VGS	77	3	False	lime	40	[ 90 570 405 675]	[1350 1830  405  675]
515.005	6.0	1342334	1348362	ShowFixation	ANTI	78	3	False	red	40	[1350 1830  405  675]	[ 90 570 405 675]
521.033	0.2	1348362	1348601	BlankScreen	ANTI	78	3	False	red	40	[1350 1830  405  675]	[ 90 570 405 675]
521.272	1.0	1348601	1349601	ELCue	ANTI	78	3	False	red	40	[1350 1830  405  675]	[ 90 570 405 675]
522.663	2.0	1349992	1352019	ShowFixation	VGS	79	3	False	lime	40	[ 90 570 405 675]	[1350 1830  405  675]
524.69	0.2	1352019	1352255	BlankScreen	VGS	79	3	False	lime	40	[ 90 570 405 675]	[1350 1830  405  675]
524.926	1.0	1352255	1353255	ELCue	VGS	79	3	False	lime	40	[ 90 570 405 675]	[1350 1830  405  675]
526.336	2.0	1353665	1355690	ShowFixation	ANTI	80	3	False	red	600	[ 90 570 405 675]	[1350 1830  405  675]
528.361	0.2	1355690	1355925	BlankScreen	ANTI	80	3	False	red	600	[ 90 570 405 675]	[1350 1830  405  675]
528.596	1.0	1355925	1356925	ELCue	ANTI	80	3	False	red	600	[ 90 570 405 675]	[1350 1830  405  675]
563.231	2.0	1390560	1392594	ShowFixation	ANTI	81	4	False	red	600	[ 90 570 405 675]	[1350 1830  405  675]
565.265	0.2	1392594	1392829	BlankScreen	ANTI	81	4	False	red	600	[ 90 570 405 675]	[1350 1830  405  675]
565.5	1.0	1392829	1393829	ELCue	ANTI	81	4	False	red	600	[ 90 570 405 675]	[1350 1830  405  675]
566.905	6.0	1394234	1400264	ShowFixation	ANTI	82	4	False	red	460	[405 885 405 675]	[1035 1515  405  675]
572.935	0.2	1400264	1400503	BlankScreen	ANTI	82	4	False	red	460	[405 885 405 675]	[1035 1515  405  675]
573.174	1.0	1400503	1401503	ELCue	ANTI	82	4	False	red	460	[405 885 405 675]	[1035 1515  405  675]
574.551	2.0	1401880	1403905	ShowFixation	ANTI	83	4	False	red	460	[405 885 405 675]	[1035 1515  405  675]
576.576	0.2	1403905	1404140	BlankScreen	ANTI	83	4	False	red	460	[405 885 405 675]	[1035 1515  405  675]
576.811	1.0	1404140	1405140	ELCue	ANTI	83	4	False	red	460	[405 885 405 675]	[1035 1515  405  675]
578.218	2.0	1405547	1407575	ShowFixation	ANTI	84	4	False	red	40	[1350 1830  405  675]	[ 90 570 405 675]
580.246	0.2	1407575	1407811	BlankScreen	ANTI	84	4	False	red	40	[1350 1830  405  675]	[ 90 570 405 675]
580.482	1.0	1407811	1408811	ELCue	ANTI	84	4	False	red	40	[1350 1830  405  675]	[ 90 570 405 675]
581.893	6.0	1409222	1415262	ShowFixation	VGS	85	4	False	lime	40	[ 90 570 405 675]	[1350 1830  405  675]
587.933	0.2	1415262	1415501	BlankScreen	VGS	85	4	False	lime	40	[ 90 570 405 675]	[1350 1830  405  675]
588.172	1.0	1415501	1416501	ELCue	VGS	85	4	False	lime	40	[ 90 570 405 675]	[1350 1830  405  675]
589.582	2.0	1416911	1418936	ShowFixation	VGS	86	4	False	lime	40	[ 90 570 405 675]	[1350 1830  405  675]
591.607	0.2	1418936	1419172	BlankScreen	VGS	86	4	False	lime	40	[ 90 570 405 675]	[1350 1830  405  675]
591.843	1.0	1419172	1420172	ELCue	VGS	86	4	False	lime	40	[ 90 570 405 675]	[1350 1830  405  675]
593.252	6.0	1420581	1426607	ShowFixation	VGS	87	4	False	lime	600	[1350 1830  405  675]	[ 90 570 405 675]
599.278	0.2	1426607	1426846	BlankScreen	VGS	87	4	False	lime	600	[1350 1830  405  675]	[ 90 570 405 675]
599.517	1.0	1426846	1427846	ELCue	VGS	87	4	False	lime	600	[1350 1830  405  675]	[ 90 570 405 675]
600.926	6.0	1428255	1434281	ShowFixation	ANTI	88	4	False	red	40	[1350 1830  405  675]	[ 90 570 405 675]
606.952	0.2	1434281	1434520	BlankScreen	ANTI	88	4	False	red	40	[1350 1830  405  675]	[ 90 570 405 675]
607.191	1.0	1434520	1435520	ELCue	ANTI	88	4	False	red	40	[1350 1830  405  675]	[ 90 570 405 675]
608.599	2.0	1435928	1437955	ShowFixation	ANTI	89	4	False	red	180	[1035 1515  405  675]	[405 885 405 675]
610.626	0.2	1437955	1438190	BlankScreen	ANTI	89	4	False	red	180	[1035 1515  405  675]	[405 885 405 675]
610.861	1.0	1438190	1439190	ELCue	ANTI	89	4	False	red	180	[1035 1515  405  675]	[405 885 405 675]
612.25	2.0	1439579	1441609	ShowFixation	VGS	90	4	False	lime	600	[1350 1830  405  675]	[ 90 570 405 675]
614.28	0.2	1441609	1441844	BlankScreen	VGS	90	4	False	lime	600	[1350 1830  405  675]	[ 90 570 405 675]
614.515	1.0	1441844	1442844	ELCue	VGS	90	4	False	lime	600	[1350 1830  405  675]	[ 90 570 405 675]
615.926	2.0	1443255	1445296	ShowFixation	VGS	91	4	False	lime	180	[405 885 405 675]	[1035 1515  405  675]
617.967	0.2	1445296	1445531	BlankScreen	VGS	91	4	False	lime	180	[405 885 405 675]	[1035 1515  405  675]
618.202	1.0	1445531	1446531	ELCue	VGS	91	4	False	lime	180	[405 885 405 675]	[1035 1515  405  675]
619.603	2.0	1446932	1448966	ShowFixation	VGS	92	4	False	lime	600	[1350 1830  405  675]	[ 90 570 405 675]
621.637	0.2	1448966	1449201	BlankScreen	VGS	92	4	False	lime	600	[1350 1830  405  675]	[ 90 570 405 675]
621.872	1.0	1449201	1450201	ELCue	VGS	92	4	False	lime	600	[1350 1830  405  675]	[ 90 570 405 675]
623.264	2.0	1450593	1452620	ShowFixation	VGS	93	4	False	lime	40	[ 90 570 405 675]	[1350 1830  405  675]
625.291	0.2	1452620	1452855	BlankScreen	VGS	93	4	False	lime	40	[ 90 570 405 675]	[1350 1830  405  675]
625.526	1.0	1452855	1453855	ELCue	VGS	93	4	False	lime	40	[ 90 570 405 675]	[1350 1830  405  675]
626.929	6.0	1454258	1460290	ShowFixation	ANTI	94	4	False	red	600	[ 90 570 405 675]	[1350 1830  405  675]
632.961	0.2	1460290	1460529	BlankScreen	ANTI	94	4	False	red	600	[ 90 570 405 675]	[1350 1830  405  675]
633.2	1.0	1460529	1461529	ELCue	ANTI	94	4	False	red	600	[ 90 570 405 675]	[1350 1830  405  675]
634.61	6.0	1461939	1467964	ShowFixation	VGS	95	4	False	lime	460	[1035 1515  405  675]	[405 885 405 675]
640.635	0.2	1467964	1468203	BlankScreen	VGS	95	4	False	lime	460	[1035 1515  405  675]	[405 885 405 675]
640.874	1.0	1468203	1469203	ELCue	VGS	95	4	False	lime	460	[1035 1515  405  675]	[405 885 405 675]
642.279	6.0	1469608	1475638	ShowFixation	VGS	96	4	False	lime	180	[405 885 405 675]	[1035 1515  405  675]
648.309	0.2	1475638	1475878	BlankScreen	VGS	96	4	False	lime	180	[405 885 405 675]	[1035 1515  405  675]
648.549	1.0	1475878	1476878	ELCue	VGS	96	4	False	lime	180	[405 885 405 675]	[1035 1515  405  675]
649.922	6.0	1477251	1483280	ShowFixation	VGS	97	4	False	lime	180	[405 885 405 675]	[1035 1515  405  675]
655.951	0.2	1483280	1483519	BlankScreen	VGS	97	4	False	lime	180	[405 885 405 675]	[1035 1515  405  675]
656.191	1.0	1483520	1484520	ELCue	VGS	97	4	False	lime	180	[405 885 405 675]	[1035 1515  405  675]
657.594	6.0	1484923	1490954	ShowFixation	ANTI	98	4	False	red	180	[1035 1515  405  675]	[405 885 405 675]
663.625	0.2	1490954	1491194	BlankScreen	ANTI	98	4	False	red	180	[1035 1515  405  675]	[405 885 405 675]
663.865	1.0	1491194	1492194	ELCue	ANTI	98	4	False	red	180	[1035 1515  405  675]	[405 885 405 675]
665.277	6.0	1492606	1498645	ShowFixation	VGS	99	4	False	lime	40	[ 90 570 405 675]	[1350 1830  405  675]
671.316	0.2	1498645	1498885	BlankScreen	VGS	99	4	False	lime	40	[ 90 570 405 675]	[1350 1830  405  675]
671.556	1.0	1498885	1499885	ELCue	VGS	99	4	False	lime	40	[ 90 570 405 675]	[1350 1830  405  675]
672.966	2.0	1500295	1502320	ShowFixation	ANTI	100	4	False	red	40	[1350 1830  405  675]	[ 90 570 405 675]
674.991	0.2	1502320	1502555	BlankScreen	ANTI	100	4	False	red	40	[1350 1830  405  675]	[ 90 570 405 675]
675.226	1.0	1502555	1503555	ELCue	ANTI	100	4	False	red	40	[1350 1830  405  675]	[ 90 570 405 675]
676.638	6.0	1503967	1510007	ShowFixation	VGS	101	4	False	lime	460	[1035 1515  405  675]	[405 885 405 675]
682.678	0.2	1510007	1510246	BlankScreen	VGS	101	4	False	lime	460	[1035 1515  405  675]	[405 885 405 675]
682.917	1.0	1510246	1511246	ELCue	VGS	101	4	False	lime	460	[1035 1515  405  675]	[405 885 405 675]
684.325	2.0	1511654	1513681	ShowFixation	ANTI	102	4	False	red	600	[ 90 570 405 675]	[1350 1830  405  675]
686.352	0.2	1513681	1513916	BlankScreen	ANTI	102	4	False	red	600	[ 90 570 405 675]	[1350 1830  405  675]
686.587	1.0	1513916	1514916	ELCue	ANTI	102	4	False	red	600	[ 90 570 405 675]	[1350 1830  405  675]
687.998	6.0	1515327	1521368	ShowFixation	ANTI	103	4	False	red	600	[ 90 570 405 675]	[1350 1830  405  675]
694.039	0.2	1521368	1521607	BlankScreen	ANTI	103	4	False	red	600	[ 90 570 405 675]	[1350 1830  405  675]
694.278	1.0	1521607	1522607	ELCue	ANTI	103	4	False	red	600	[ 90 570 405 675]	[1350 1830  405  675]
695.688	6.0	1523017	1529042	ShowFixation	ANTI	104	4	False	red	460	[405 885 405 675]	[1035 1515  405  675]
701.713	0.2	1529042	1529281	BlankScreen	ANTI	104	4	False	red	460	[405 885 405 675]	[1035 1515  405  675]
701.952	1.0	1529281	1530281	ELCue	ANTI	104	4	False	red	460	[405 885 405 675]	[1035 1515  405  675]
703.362	2.0	1530691	1532716	ShowFixation	VGS	105	4	False	lime	180	[405 885 405 675]	[1035 1515  405  675]
705.387	0.2	1532716	1532952	BlankScreen	VGS	105	4	False	lime	180	[405 885 405 675]	[1035 1515  405  675]
705.623	1.0	1532952	1533952	ELCue	VGS	105	4	False	lime	180	[405 885 405 675]	[1035 1515  405  675]
707.031	2.0	1534360	1536386	ShowFixation	VGS	106	4	False	lime	460	[1035 1515  405  675]	[405 885 405 675]
709.057	0.2	1536386	1536622	BlankScreen	VGS	106	4	False	lime	460	[1035 1515  405  675]	[405 885 405 675]
709.293	1.0	1536622	1537622	ELCue	VGS	106	4	False	lime	460	[1035 1515  405  675]	[405 885 405 675]
710.684	6.0	1538013	1544040	ShowFixation	ANTI	107	4	False	red	40	[1350 1830  405  675]	[ 90 570 405 675]
716.711	0.2	1544040	1544279	BlankScreen	ANTI	107	4	False	red	40	[1350 1830  405  675]	[ 90 570 405 675]
716.95	1.0	1544279	1545279	ELCue	ANTI	107	4	False	red	40	[1350 1830  405  675]	[ 90 570 405 675]
718.358	6.0	1545687	1551714	ShowFixation	ANTI	108	4	False	red	180	[1035 1515  405  675]	[405 885 405 675]
724.385	0.2	1551714	1551954	BlankScreen	ANTI	108	4	False	red	180	[1035 1515  405  675]	[405 885 405 675]
724.625	1.0	1551954	1552954	ELCue	ANTI	108	4	False	red	180	[1035 1515  405  675]	[405 885 405 675]
726.032	2.0	1553361	1555389	ShowFixation	ANTI	109	4	False	red	180	[1035 1515  405  675]	[405 885 405 675]
728.06	0.2	1555389	1555624	BlankScreen	ANTI	109	4	False	red	180	[1035 1515  405  675]	[405 885 405 675]
728.295	1.0	1555624	1556624	ELCue	ANTI	109	4	False	red	180	[1035 1515  405  675]	[405 885 405 675]
729.698	2.0	1557027	1559059	ShowFixation	VGS	110	4	False	lime	460	[1035 1515  405  675]	[405 885 405 675]
731.73	0.2	1559059	1559294	BlankScreen	VGS	110	4	False	lime	460	[1035 1515  405  675]	[405 885 405 675]
731.965	1.0	1559294	1560294	ELCue	VGS	110	4	False	lime	460	[1035 1515  405  675]	[405 885 405 675]
733.371	6.0	1560700	1566729	ShowFixation	VGS	111	4	False	lime	600	[1350 1830  405  675]	[ 90 570 405 675]
739.4	0.2	1566729	1566968	BlankScreen	VGS	111	4	False	lime	600	[1350 1830  405  675]	[ 90 570 405 675]
739.639	1.0	1566968	1567968	ELCue	VGS	111	4	False	lime	600	[1350 1830  405  675]	[ 90 570 405 675]
741.048	2.0	1568377	1570403	ShowFixation	ANTI	112	4	False	red	460	[405 885 405 675]	[1035 1515  405  675]
743.074	0.2	1570403	1570639	BlankScreen	ANTI	112	4	False	red	460	[405 885 405 675]	[1035 1515  405  675]
743.31	1.0	1570639	1571639	ELCue	ANTI	112	4	False	red	460	[405 885 405 675]	[1035 1515  405  675]
