onset	duration	startTime	stopTime	eventIdentifier	trial_type	trial_number	block_number	is_practice	fixation_color	cue_side	aoi_correct	aoi_incorrect
0.145	2.0	842024	844057	ShowFixation	VGS	1	1	True	lime	40	[ 90 570 405 675]	[1350 1830  405  675]
2.178	0.2	844057	844292	BlankScreen	VGS	1	1	True	lime	40	[ 90 570 405 675]	[1350 1830  405  675]
2.413	1.0	844292	845333	ELCue	VGS	1	1	True	lime	40	[ 90 570 405 675]	[1350 1830  405  675]
3.862	6.0	845741	852377	ShowFixation	VGS	2	1	True	lime	460	[1035 1515  405  675]	[405 885 405 675]
10.498	0.2	852377	852617	BlankScreen	VGS	2	1	True	lime	460	[1035 1515  405  675]	[405 885 405 675]
10.738	1.0	852617	853658	ELCue	VGS	2	1	True	lime	460	[1035 1515  405  675]	[405 885 405 675]
12.184	6.0	854063	860702	ShowFixation	ANTI	3	1	True	red	40	[1350 1830  405  675]	[ 90 570 405 675]
18.823	0.2	860702	860942	BlankScreen	ANTI	3	1	True	red	40	[1350 1830  405  675]	[ 90 570 405 675]
19.063	1.0	860942	861982	ELCue	ANTI	3	1	True	red	40	[1350 1830  405  675]	[ 90 570 405 675]
20.506	6.0	862385	869027	ShowFixation	VGS	4	1	True	lime	40	[ 90 570 405 675]	[1350 1830  405  675]
27.148	0.2	869027	869267	BlankScreen	VGS	4	1	True	lime	40	[ 90 570 405 675]	[1350 1830  405  675]
27.388	1.0	869267	870307	ELCue	VGS	4	1	True	lime	40	[ 90 570 405 675]	[1350 1830  405  675]
28.834	6.0	870713	877352	ShowFixation	VGS	5	1	True	lime	180	[405 885 405 675]	[1035 1515  405  675]
35.473	0.2	877352	877591	BlankScreen	VGS	5	1	True	lime	180	[405 885 405 675]	[1035 1515  405  675]
35.712	1.0	877591	878632	ELCue	VGS	5	1	True	lime	180	[405 885 405 675]	[1035 1515  405  675]
37.155	2.0	879034	881660	ShowFixation	ANTI	6	1	True	red	180	[1035 1515  405  675]	[405 885 405 675]
39.781	0.2	881660	881879	BlankScreen	ANTI	6	1	True	red	180	[1035 1515  405  675]	[405 885 405 675]
40.0	1.0	881879	882903	ELCue	ANTI	6	1	True	red	180	[1035 1515  405  675]	[405 885 405 675]
41.424	6.0	883303	889948	ShowFixation	VGS	7	1	True	lime	600	[1350 1830  405  675]	[ 90 570 405 675]
48.069	0.2	889948	890188	BlankScreen	VGS	7	1	True	lime	600	[1350 1830  405  675]	[ 90 570 405 675]
48.309	1.0	890188	891228	ELCue	VGS	7	1	True	lime	600	[1350 1830  405  675]	[ 90 570 405 675]
49.758	2.0	891637	894257	ShowFixation	VGS	8	1	True	lime	600	[1350 1830  405  675]	[ 90 570 405 675]
52.378	0.2	894257	894475	BlankScreen	VGS	8	1	True	lime	600	[1350 1830  405  675]	[ 90 570 405 675]
52.597	1.0	894476	895499	ELCue	VGS	8	1	True	lime	600	[1350 1830  405  675]	[ 90 570 405 675]
54.025	2.0	895904	898545	ShowFixation	ANTI	9	1	True	red	40	[1350 1830  405  675]	[ 90 570 405 675]
56.666	0.2	898545	898779	BlankScreen	ANTI	9	1	True	red	40	[1350 1830  405  675]	[ 90 570 405 675]
56.901	1.0	898780	899820	ELCue	ANTI	9	1	True	red	40	[1350 1830  405  675]	[ 90 570 405 675]
58.325	6.0	900204	906866	ShowFixation	ANTI	10	1	True	red	460	[405 885 405 675]	[1035 1515  405  675]
64.987	0.2	906866	907105	BlankScreen	ANTI	10	1	True	red	460	[405 885 405 675]	[1035 1515  405  675]
65.226	1.0	907105	908145	ELCue	ANTI	10	1	True	red	460	[405 885 405 675]	[1035 1515  405  675]
66.675	2.0	908554	911174	ShowFixation	ANTI	11	1	True	red	600	[ 90 570 405 675]	[1350 1830  405  675]
69.295	0.2	911174	911392	BlankScreen	ANTI	11	1	True	red	600	[ 90 570 405 675]	[1350 1830  405  675]
69.513	1.0	911392	912416	ELCue	ANTI	11	1	True	red	600	[ 90 570 405 675]	[1350 1830  405  675]
70.941	2.0	912820	915461	ShowFixation	VGS	12	1	True	lime	180	[405 885 405 675]	[1035 1515  405  675]
73.582	0.2	915461	915697	BlankScreen	VGS	12	1	True	lime	180	[405 885 405 675]	[1035 1515  405  675]
73.818	1.0	915697	916737	ELCue	VGS	12	1	True	lime	180	[405 885 405 675]	[1035 1515  405  675]
75.262	2.0	917141	919782	ShowFixation	ANTI	13	1	True	red	460	[405 885 405 675]	[1035 1515  405  675]
77.903	0.2	919782	920018	BlankScreen	ANTI	13	1	True	red	460	[405 885 405 675]	[1035 1515  405  675]
78.139	1.0	920018	921058	ELCue	ANTI	13	1	True	red	460	[405 885 405 675]	[1035 1515  405  675]
79.585	6.0	921464	928103	ShowFixation	ANTI	14	1	True	red	180	[1035 1515  405  675]	[405 885 405 675]
86.224	0.2	928103	928343	BlankScreen	ANTI	14	1	True	red	180	[1035 1515  405  675]	[405 885 405 675]
86.464	1.0	928343	929382	ELCue	ANTI	14	1	True	red	180	[1035 1515  405  675]	[405 885 405 675]
87.902	2.0	929781	932411	ShowFixation	VGS	15	1	True	lime	460	[1035 1515  405  675]	[405 885 405 675]
90.532	0.2	932411	932630	BlankScreen	VGS	15	1	True	lime	460	[1035 1515  405  675]	[405 885 405 675]
90.751	1.0	932630	933653	ELCue	VGS	15	1	True	lime	460	[1035 1515  405  675]	[405 885 405 675]
92.18	6.0	934059	940699	ShowFixation	ANTI	16	1	True	red	600	[ 90 570 405 675]	[1350 1830  405  675]
98.82	0.2	940699	940938	BlankScreen	ANTI	16	1	True	red	600	[ 90 570 405 675]	[1350 1830  405  675]
99.059	1.0	940938	941979	ELCue	ANTI	16	1	True	red	600	[ 90 570 405 675]	[1350 1830  405  675]
122.53	6.0	964409	970445	ShowFixation	ANTI	17	2	False	red	600	[ 90 570 405 675]	[1350 1830  405  675]
128.566	0.2	970445	970684	BlankScreen	ANTI	17	2	False	red	600	[ 90 570 405 675]	[1350 1830  405  675]
128.805	1.0	970684	971684	ELCue	ANTI	17	2	False	red	600	[ 90 570 405 675]	[1350 1830  405  675]
130.213	6.0	972092	978119	ShowFixation	VGS	18	2	False	lime	180	[405 885 405 675]	[1035 1515  405  675]
136.24	0.2	978119	978359	BlankScreen	VGS	18	2	False	lime	180	[405 885 405 675]	[1035 1515  405  675]
136.48	1.0	978359	979359	ELCue	VGS	18	2	False	lime	180	[405 885 405 675]	[1035 1515  405  675]
137.892	2.0	979771	981810	ShowFixation	VGS	19	2	False	lime	180	[405 885 405 675]	[1035 1515  405  675]
139.931	0.2	981810	982046	BlankScreen	VGS	19	2	False	lime	180	[405 885 405 675]	[1035 1515  405  675]
140.167	1.0	982046	983046	ELCue	VGS	19	2	False	lime	180	[405 885 405 675]	[1035 1515  405  675]
141.545	2.0	983424	985464	ShowFixation	VGS	20	2	False	lime	40	[ 90 570 405 675]	[1350 1830  405  675]
143.585	0.2	985464	985699	BlankScreen	VGS	20	2	False	lime	40	[ 90 570 405 675]	[1350 1830  405  675]
143.82	1.0	985699	986699	ELCue	VGS	20	2	False	lime	40	[ 90 570 405 675]	[1350 1830  405  675]
145.231	6.0	987110	993151	ShowFixation	VGS	21	2	False	lime	40	[ 90 570 405 675]	[1350 1830  405  675]
151.272	0.2	993151	993390	BlankScreen	VGS	21	2	False	lime	40	[ 90 570 405 675]	[1350 1830  405  675]
151.511	1.0	993390	994390	ELCue	VGS	21	2	False	lime	40	[ 90 570 405 675]	[1350 1830  405  675]
152.923	6.0	994802	1000842	ShowFixation	ANTI	22	2	False	red	40	[1350 1830  405  675]	[ 90 570 405 675]
158.963	0.2	1000842	1001081	BlankScreen	ANTI	22	2	False	red	40	[1350 1830  405  675]	[ 90 570 405 675]
159.202	1.0	1001081	1002081	ELCue	ANTI	22	2	False	red	40	[1350 1830  405  675]	[ 90 570 405 675]
160.614	2.0	1002493	1004533	ShowFixation	ANTI	23	2	False	red	40	[1350 1830  405  675]	[ 90 570 405 675]
162.654	0.2	1004533	1004768	BlankScreen	ANTI	23	2	False	red	40	[1350 1830  405  675]	[ 90 570 405 675]
162.889	1.0	1004768	1005768	ELCue	ANTI	23	2	False	red	40	[1350 1830  405  675]	[ 90 570 405 675]
164.299	6.0	1006178	1012203	ShowFixation	VGS	24	2	False	lime	180	[405 885 405 675]	[1035 1515  405  675]
170.324	0.2	1012203	1012442	BlankScreen	VGS	24	2	False	lime	180	[405 885 405 675]	[1035 1515  405  675]
170.563	1.0	1012442	1013442	ELCue	VGS	24	2	False	lime	180	[405 885 405 675]	[1035 1515  405  675]
171.971	2.0	1013850	1015877	ShowFixation	VGS	25	2	False	lime	600	[1350 1830  405  675]	[ 90 570 405 675]
173.998	0.2	1015877	1016113	BlankScreen	VGS	25	2	False	lime	600	[1350 1830  405  675]	[ 90 570 405 675]
174.234	1.0	1016113	1017113	ELCue	VGS	25	2	False	lime	600	[1350 1830  405  675]	[ 90 570 405 675]
175.643	2.0	1017522	1019548	ShowFixation	ANTI	26	2	False	red	460	[405 885 405 675]	[1035 1515  405  675]
177.669	0.2	1019548	1019783	BlankScreen	ANTI	26	2	False	red	460	[405 885 405 675]	[1035 1515  405  675]
177.904	1.0	1019783	1020783	ELCue	ANTI	26	2	False	red	460	[405 885 405 675]	[1035 1515  405  675]
179.315	6.0	1021194	1027235	ShowFixation	ANTI	27	2	False	red	460	[405 885 405 675]	[1035 1515  405  675]
185.356	0.2	1027235	1027474	BlankScreen	ANTI	27	2	False	red	460	[405 885 405 675]	[1035 1515  405  675]
185.596	1.0	1027475	1028475	ELCue	ANTI	27	2	False	red	460	[405 885 405 675]	[1035 1515  405  675]
186.985	6.0	1028864	1034892	ShowFixation	ANTI	28	2	False	red	40	[1350 1830  405  675]	[ 90 570 405 675]
193.014	0.2	1034893	1035131	BlankScreen	ANTI	28	2	False	red	40	[1350 1830  405  675]	[ 90 570 405 675]
193.253	1.0	1035132	1036132	ELCue	ANTI	28	2	False	red	40	[1350 1830  405  675]	[ 90 570 405 675]
194.662	6.0	1036541	1042567	ShowFixation	ANTI	29	2	False	red	180	[1035 1515  405  675]	[405 885 405 675]
200.688	0.2	1042567	1042807	BlankScreen	ANTI	29	2	False	red	180	[1035 1515  405  675]	[405 885 405 675]
200.928	1.0	1042807	1043807	ELCue	ANTI	29	2	False	red	180	[1035 1515  405  675]	[405 885 405 675]
202.334	6.0	1044213	1050242	ShowFixation	ANTI	30	2	False	red	180	[1035 1515  405  675]	[405 885 405 675]
208.363	0.2	1050242	1050481	BlankScreen	ANTI	30	2	False	red	180	[1035 1515  405  675]	[405 885 405 675]
208.602	1.0	1050481	1051481	ELCue	ANTI	30	2	False	red	180	[1035 1515  405  675]	[405 885 405 675]
210.003	6.0	1051882	1057916	ShowFixation	VGS	31	2	False	lime	600	[1350 1830  405  675]	[ 90 570 405 675]
216.037	0.2	1057916	1058155	BlankScreen	VGS	31	2	False	lime	600	[1350 1830  405  675]	[ 90 570 405 675]
216.276	1.0	1058155	1059155	ELCue	VGS	31	2	False	lime	600	[1350 1830  405  675]	[ 90 570 405 675]
217.685	2.0	1059564	1061590	ShowFixation	ANTI	32	2	False	red	180	[1035 1515  405  675]	[405 885 405 675]
219.711	0.2	1061590	1061825	BlankScreen	ANTI	32	2	False	red	180	[1035 1515  405  675]	[405 885 405 675]
219.946	1.0	1061825	1062825	ELCue	ANTI	32	2	False	red	180	[1035 1515  405  675]	[405 885 405 675]
221.347	2.0	1063226	1065260	ShowFixation	VGS	33	2	False	lime	40	[ 90 570 405 675]	[1350 1830  405  675]
223.381	0.2	1065260	1065496	BlankScreen	VGS	33	2	False	lime	40	[ 90 570 405 675]	[1350 1830  405  675]
223.617	1.0	1065496	1066496	ELCue	VGS	33	2	False	lime	40	[ 90 570 405 675]	[1350 1830  405  675]
225.003	2.0	1066882	1068914	ShowFixation	VGS	34	2	False	lime	600	[1350 1830  405  675]	[ 90 570 405 675]
227.035	0.2	1068914	1069149	BlankScreen	VGS	34	2	False	lime	600	[1350 1830  405  675]	[ 90 570 405 675]
227.27	1.0	1069149	1070149	ELCue	VGS	34	2	False	lime	600	[1350 1830  405  675]	[ 90 570 405 675]
228.672	6.0	1070551	1076584	ShowFixation	VGS	35	2	False	lime	460	[1035 1515  405  675]	[405 885 405 675]
234.705	0.2	1076584	1076824	BlankScreen	VGS	35	2	False	lime	460	[1035 1515  405  675]	[405 885 405 675]
234.945	1.0	1076824	1077824	ELCue	VGS	35	2	False	lime	460	[1035 1515  405  675]	[405 885 405 675]
236.359	2.0	1078238	1080275	ShowFixation	ANTI	36	2	False	red	40	[1350 1830  405  675]	[ 90 570 405 675]
238.396	0.2	1080275	1080511	BlankScreen	ANTI	36	2	False	red	40	[1350 1830  405  675]	[ 90 570 405 675]
238.632	1.0	1080511	1081511	ELCue	ANTI	36	2	False	red	40	[1350 1830  405  675]	[ 90 570 405 675]
240.018	2.0	1081897	1083929	ShowFixation	VGS	37	2	False	lime	460	[1035 1515  405  675]	[405 885 405 675]
242.05	0.2	1083929	1084164	BlankScreen	VGS	37	2	False	lime	460	[1035 1515  405  675]	[405 885 405 675]
242.285	1.0	1084164	1085164	ELCue	VGS	37	2	False	lime	460	[1035 1515  405  675]	[405 885 405 675]
243.695	6.0	1085574	1091599	ShowFixation	VGS	38	2	False	lime	460	[1035 1515  405  675]	[405 885 405 675]
249.72	0.2	1091599	1091838	BlankScreen	VGS	38	2	False	lime	460	[1035 1515  405  675]	[405 885 405 675]
249.959	1.0	1091838	1092838	ELCue	VGS	38	2	False	lime	460	[1035 1515  405  675]	[405 885 405 675]
251.369	2.0	1093248	1095273	ShowFixation	ANTI	39	2	False	red	180	[1035 1515  405  675]	[405 885 405 675]
253.394	0.2	1095273	1095509	BlankScreen	ANTI	39	2	False	red	180	[1035 1515  405  675]	[405 885 405 675]
253.63	1.0	1095509	1096509	ELCue	ANTI	39	2	False	red	180	[1035 1515  405  675]	[405 885 405 675]
255.041	2.0	1096920	1098960	ShowFixation	ANTI	40	2	False	red	460	[405 885 405 675]	[1035 1515  405  675]
257.081	0.2	1098960	1099196	BlankScreen	ANTI	40	2	False	red	460	[405 885 405 675]	[1035 1515  405  675]
257.317	1.0	1099196	1100196	ELCue	ANTI	40	2	False	red	460	[405 885 405 675]	[1035 1515  405  675]
258.725	6.0	1100604	1106631	ShowFixation	VGS	41	2	False	lime	40	[ 90 570 405 675]	[1350 1830  405  675]
264.752	0.2	1106631	1106870	BlankScreen	VGS	41	2	False	lime	40	[ 90 570 405 675]	[1350 1830  405  675]
264.991	1.0	1106870	1107870	ELCue	VGS	41	2	False	lime	40	[ 90 570 405 675]	[1350 1830  405  675]
266.399	2.0	1108278	1110305	ShowFixation	ANTI	42	2	False	red	600	[ 90 570 405 675]	[1350 1830  405  675]
268.426	0.2	1110305	1110540	BlankScreen	ANTI	42	2	False	red	600	[ 90 570 405 675]	[1350 1830  405  675]
268.661	1.0	1110540	1111540	ELCue	ANTI	42	2	False	red	600	[ 90 570 405 675]	[1350 1830  405  675]
270.048	6.0	1111927	1117958	ShowFixation	ANTI	43	2	False	red	600	[ 90 570 405 675]	[1350 1830  405  675]
276.079	0.2	1117958	1118198	BlankScreen	ANTI	43	2	False	red	600	[ 90 570 405 675]	[1350 1830  405  675]
276.319	1.0	1118198	1119198	ELCue	ANTI	43	2	False	red	600	[ 90 570 405 675]	[1350 1830  405  675]
277.732	2.0	1119611	1121649	ShowFixation	ANTI	44	2	False	red	600	[ 90 570 405 675]	[1350 1830  405  675]
279.77	0.2	1121649	1121885	BlankScreen	ANTI	44	2	False	red	600	[ 90 570 405 675]	[1350 1830  405  675]
280.006	1.0	1121885	1122885	ELCue	ANTI	44	2	False	red	600	[ 90 570 405 675]	[1350 1830  405  675]
281.414	6.0	1123293	1129320	ShowFixation	VGS	45	2	False	lime	600	[1350 1830  405  675]	[ 90 570 405 675]
287.441	0.2	1129320	1129559	BlankScreen	VGS	45	2	False	lime	600	[1350 1830  405  675]	[ 90 570 405 675]
287.68	1.0	1129559	1130559	ELCue	VGS	45	2	False	lime	600	[1350 1830  405  675]	[ 90 570 405 675]
289.093	2.0	1130972	1133011	ShowFixation	VGS	46	2	False	lime	460	[1035 1515  405  675]	[405 885 405 675]
291.132	0.2	1133011	1133246	BlankScreen	VGS	46	2	False	lime	460	[1035 1515  405  675]	[405 885 405 675]
291.367	1.0	1133246	1134246	ELCue	VGS	46	2	False	lime	460	[1035 1515  405  675]	[405 885 405 675]
292.775	6.0	1134654	1140681	ShowFixation	ANTI	47	2	False	red	460	[405 885 405 675]	[1035 1515  405  675]
298.802	0.2	1140681	1140920	BlankScreen	ANTI	47	2	False	red	460	[405 885 405 675]	[1035 1515  405  675]
299.041	1.0	1140920	1141920	ELCue	ANTI	47	2	False	red	460	[405 885 405 675]	[1035 1515  405  675]
300.434	2.0	1142313	1144339	ShowFixation	VGS	48	2	False	lime	180	[405 885 405 675]	[1035 1515  405  675]
302.46	0.2	1144339	1144574	BlankScreen	VGS	48	2	False	lime	180	[405 885 405 675]	[1035 1515  405  675]
302.695	1.0	1144574	1145574	ELCue	VGS	48	2	False	lime	180	[405 885 405 675]	[1035 1515  405  675]
467.179	6.0	1309058	1315088	ShowFixation	ANTI	49	3	False	red	600	[ 90 570 405 675]	[1350 1830  405  675]
473.209	0.2	1315088	1315328	BlankScreen	ANTI	49	3	False	red	600	[ 90 570 405 675]	[1350 1830  405  675]
473.449	1.0	1315328	1316328	ELCue	ANTI	49	3	False	red	600	[ 90 570 405 675]	[1350 1830  405  675]
474.856	2.0	1316735	1318763	ShowFixation	ANTI	50	3	False	red	180	[1035 1515  405  675]	[405 885 405 675]
476.884	0.2	1318763	1318998	BlankScreen	ANTI	50	3	False	red	180	[1035 1515  405  675]	[405 885 405 675]
477.119	1.0	1318998	1319998	ELCue	ANTI	50	3	False	red	180	[1035 1515  405  675]	[405 885 405 675]
478.523	2.0	1320402	1322433	ShowFixation	VGS	51	3	False	lime	600	[1350 1830  405  675]	[ 90 570 405 675]
480.554	0.2	1322433	1322668	BlankScreen	VGS	51	3	False	lime	600	[1350 1830  405  675]	[ 90 570 405 675]
480.789	1.0	1322668	1323668	ELCue	VGS	51	3	False	lime	600	[1350 1830  405  675]	[ 90 570 405 675]
482.197	6.0	1324076	1330103	ShowFixation	ANTI	52	3	False	red	180	[1035 1515  405  675]	[405 885 405 675]
488.224	0.2	1330103	1330343	BlankScreen	ANTI	52	3	False	red	180	[1035 1515  405  675]	[405 885 405 675]
488.464	1.0	1330343	1331343	ELCue	ANTI	52	3	False	red	180	[1035 1515  405  675]	[405 885 405 675]
489.873	6.0	1331752	1337778	ShowFixation	VGS	53	3	False	lime	180	[405 885 405 675]	[1035 1515  405  675]
495.899	0.2	1337778	1338017	BlankScreen	VGS	53	3	False	lime	180	[405 885 405 675]	[1035 1515  405  675]
496.138	1.0	1338017	1339017	ELCue	VGS	53	3	False	lime	180	[405 885 405 675]	[1035 1515  405  675]
497.546	6.0	1339425	1345452	ShowFixation	VGS	54	3	False	lime	600	[1350 1830  405  675]	[ 90 570 405 675]
503.573	0.2	1345452	1345691	BlankScreen	VGS	54	3	False	lime	600	[1350 1830  405  675]	[ 90 570 405 675]
503.812	1.0	1345691	1346691	ELCue	VGS	54	3	False	lime	600	[1350 1830  405  675]	[ 90 570 405 675]
505.205	6.0	1347084	1353109	ShowFixation	VGS	55	3	False	lime	600	[1350 1830  405  675]	[ 90 570 405 675]
511.23	0.2	1353109	1353349	BlankScreen	VGS	55	3	False	lime	600	[1350 1830  405  675]	[ 90 570 405 675]
511.47	1.0	1353349	1354349	ELCue	VGS	55	3	False	lime	600	[1350 1830  405  675]	[ 90 570 405 675]
512.854	6.0	1354733	1360767	ShowFixation	VGS	56	3	False	lime	460	[1035 1515  405  675]	[405 885 405 675]
518.888	0.2	1360767	1361006	BlankScreen	VGS	56	3	False	lime	460	[1035 1515  405  675]	[405 885 405 675]
519.127	1.0	1361006	1362006	ELCue	VGS	56	3	False	lime	460	[1035 1515  405  675]	[405 885 405 675]
520.54	6.0	1362419	1368458	ShowFixation	ANTI	57	3	False	red	180	[1035 1515  405  675]	[405 885 405 675]
526.579	0.2	1368458	1368697	BlankScreen	ANTI	57	3	False	red	180	[1035 1515  405  675]	[405 885 405 675]
526.818	1.0	1368697	1369697	ELCue	ANTI	57	3	False	red	180	[1035 1515  405  675]	[405 885 405 675]
528.195	6.0	1370074	1376099	ShowFixation	ANTI	58	3	False	red	600	[ 90 570 405 675]	[1350 1830  405  675]
534.22	0.2	1376099	1376338	BlankScreen	ANTI	58	3	False	red	600	[ 90 570 405 675]	[1350 1830  405  675]
534.459	1.0	1376338	1377338	ELCue	ANTI	58	3	False	red	600	[ 90 570 405 675]	[1350 1830  405  675]
535.866	6.0	1377745	1383773	ShowFixation	ANTI	59	3	False	red	460	[405 885 405 675]	[1035 1515  405  675]
541.894	0.2	1383773	1384012	BlankScreen	ANTI	59	3	False	red	460	[405 885 405 675]	[1035 1515  405  675]
542.133	1.0	1384012	1385012	ELCue	ANTI	59	3	False	red	460	[405 885 405 675]	[1035 1515  405  675]
543.538	6.0	1385417	1391447	ShowFixation	ANTI	60	3	False	red	40	[1350 1830  405  675]	[ 90 570 405 675]
549.568	0.2	1391447	1391686	BlankScreen	ANTI	60	3	False	red	40	[1350 1830  405  675]	[ 90 570 405 675]
549.807	1.0	1391686	1392686	ELCue	ANTI	60	3	False	red	40	[1350 1830  405  675]	[ 90 570 405 675]
551.217	2.0	1393096	1395121	ShowFixation	ANTI	61	3	False	red	460	[405 885 405 675]	[1035 1515  405  675]
553.242	0.2	1395121	1395357	BlankScreen	ANTI	61	3	False	red	460	[405 885 405 675]	[1035 1515  405  675]
553.478	1.0	1395357	1396357	ELCue	ANTI	61	3	False	red	460	[405 885 405 675]	[1035 1515  405  675]
554.884	2.0	1396763	1398792	ShowFixation	VGS	62	3	False	lime	180	[405 885 405 675]	[1035 1515  405  675]
556.913	0.2	1398792	1399027	BlankScreen	VGS	62	3	False	lime	180	[405 885 405 675]	[1035 1515  405  675]
557.148	1.0	1399027	1400027	ELCue	VGS	62	3	False	lime	180	[405 885 405 675]	[1035 1515  405  675]
558.555	2.0	1400434	1402462	ShowFixation	ANTI	63	3	False	red	40	[1350 1830  405  675]	[ 90 570 405 675]
560.583	0.2	1402462	1402697	BlankScreen	ANTI	63	3	False	red	40	[1350 1830  405  675]	[ 90 570 405 675]
560.818	1.0	1402697	1403697	ELCue	ANTI	63	3	False	red	40	[1350 1830  405  675]	[ 90 570 405 675]
562.23	2.0	1404109	1406149	ShowFixation	VGS	64	3	False	lime	460	[1035 1515  405  675]	[405 885 405 675]
564.27	0.2	1406149	1406384	BlankScreen	VGS	64	3	False	lime	460	[1035 1515  405  675]	[405 885 405 675]
564.505	1.0	1406384	1407384	ELCue	VGS	64	3	False	lime	460	[1035 1515  405  675]	[405 885 405 675]
565.912	2.0	1407791	1409819	ShowFixation	ANTI	65	3	False	red	600	[ 90 570 405 675]	[1350 1830  405  675]
567.94	0.2	1409819	1410055	BlankScreen	ANTI	65	3	False	red	600	[ 90 570 405 675]	[1350 1830  405  675]
568.176	1.0	1410055	1411055	ELCue	ANTI	65	3	False	red	600	[ 90 570 405 675]	[1350 1830  405  675]
569.587	2.0	1411466	1413506	ShowFixation	ANTI	66	3	False	red	600	[ 90 570 405 675]	[1350 1830  405  675]
571.627	0.2	1413506	1413742	BlankScreen	ANTI	66	3	False	red	600	[ 90 570 405 675]	[1350 1830  405  675]
571.863	1.0	1413742	1414742	ELCue	ANTI	66	3	False	red	600	[ 90 570 405 675]	[1350 1830  405  675]
573.235	2.0	1415114	1417143	ShowFixation	VGS	67	3	False	lime	460	[1035 1515  405  675]	[405 885 405 675]
575.264	0.2	1417143	1417378	BlankScreen	VGS	67	3	False	lime	460	[1035 1515  405  675]	[405 885 405 675]
575.499	1.0	1417378	1418378	ELCue	VGS	67	3	False	lime	460	[1035 1515  405  675]	[405 885 405 675]
576.905	2.0	1418784	1420813	ShowFixation	VGS	68	3	False	lime	180	[405 885 405 675]	[1035 1515  405  675]
578.934	0.2	1420813	1421049	BlankScreen	VGS	68	3	False	lime	180	[405 885 405 675]	[1035 1515  405  675]
579.17	1.0	1421049	1422049	ELCue	VGS	68	3	False	lime	180	[405 885 405 675]	[1035 1515  405  675]
580.544	2.0	1422423	1424450	ShowFixation	ANTI	69	3	False	red	40	[1350 1830  405  675]	[ 90 570 405 675]
582.571	0.2	1424450	1424686	BlankScreen	ANTI	69	3	False	red	40	[1350 1830  405  675]	[ 90 570 405 675]
582.807	1.0	1424686	1425686	ELCue	ANTI	69	3	False	red	40	[1350 1830  405  675]	[ 90 570 405 675]
584.212	6.0	1426091	1432121	ShowFixation	ANTI	70	3	False	red	460	[405 885 405 675]	[1035 1515  405  675]
590.242	0.2	1432121	1432360	BlankScreen	ANTI	70	3	False	red	460	[405 885 405 675]	[1035 1515  405  675]
590.481	1.0	1432360	1433360	ELCue	ANTI	70	3	False	red	460	[405 885 405 675]	[1035 1515  405  675]
591.891	6.0	1433770	1439795	ShowFixation	ANTI	71	3	False	red	40	[1350 1830  405  675]	[ 90 570 405 675]
597.916	0.2	1439795	1440034	BlankScreen	ANTI	71	3	False	red	40	[1350 1830  405  675]	[ 90 570 405 675]
598.156	1.0	1440035	1441035	ELCue	ANTI	71	3	False	red	40	[1350 1830  405  675]	[ 90 570 405 675]
599.562	6.0	1441441	1447469	ShowFixation	VGS	72	3	False	lime	40	[ 90 570 405 675]	[1350 1830  405  675]
605.59	0.2	1447469	1447708	BlankScreen	VGS	72	3	False	lime	40	[ 90 570 405 675]	[1350 1830  405  675]
605.829	1.0	1447708	1448708	ELCue	VGS	72	3	False	lime	40	[ 90 570 405 675]	[1350 1830  405  675]
607.241	2.0	1449120	1451161	ShowFixation	ANTI	73	3	False	red	460	[405 885 405 675]	[1035 1515  405  675]
609.282	0.2	1451161	1451396	BlankScreen	ANTI	73	3	False	red	460	[405 885 405 675]	[1035 1515  405  675]
609.517	1.0	1451396	1452396	ELCue	ANTI	73	3	False	red	460	[405 885 405 675]	[1035 1515  405  675]
610.927	2.0	1452806	1454830	ShowFixation	VGS	74	3	False	lime	40	[ 90 570 405 675]	[1350 1830  405  675]
612.952	0.2	1454831	1455067	BlankScreen	VGS	74	3	False	lime	40	[ 90 570 405 675]	[1350 1830  405  675]
613.188	1.0	1455067	1456067	ELCue	VGS	74	3	False	lime	40	[ 90 570 405 675]	[1350 1830  405  675]
614.591	6.0	1456470	1462502	ShowFixation	VGS	75	3	False	lime	40	[ 90 570 405 675]	[1350 1830  405  675]
620.623	0.2	1462502	1462741	BlankScreen	VGS	75	3	False	lime	40	[ 90 570 405 675]	[1350 1830  405  675]
620.862	1.0	1462741	1463741	ELCue	VGS	75	3	False	lime	40	[ 90 570 405 675]	[1350 1830  405  675]
622.236	2.0	1464115	1466142	ShowFixation	ANTI	76	3	False	red	180	[1035 1515  405  675]	[405 885 405 675]
624.263	0.2	1466142	1466378	BlankScreen	ANTI	76	3	False	red	180	[1035 1515  405  675]	[405 885 405 675]
624.499	1.0	1466378	1467378	ELCue	ANTI	76	3	False	red	180	[1035 1515  405  675]	[405 885 405 675]
625.906	6.0	1467785	1473813	ShowFixation	VGS	77	3	False	lime	460	[1035 1515  405  675]	[405 885 405 675]
631.934	0.2	1473813	1474052	BlankScreen	VGS	77	3	False	lime	460	[1035 1515  405  675]	[405 885 405 675]
632.173	1.0	1474052	1475052	ELCue	VGS	77	3	False	lime	460	[1035 1515  405  675]	[405 885 405 675]
633.58	2.0	1475459	1477487	ShowFixation	VGS	78	3	False	lime	40	[ 90 570 405 675]	[1350 1830  405  675]
635.608	0.2	1477487	1477722	BlankScreen	VGS	78	3	False	lime	40	[ 90 570 405 675]	[1350 1830  405  675]
635.843	1.0	1477722	1478722	ELCue	VGS	78	3	False	lime	40	[ 90 570 405 675]	[1350 1830  405  675]
637.246	6.0	1479125	1485157	ShowFixation	VGS	79	3	False	lime	180	[405 885 405 675]	[1035 1515  405  675]
643.278	0.2	1485157	1485397	BlankScreen	VGS	79	3	False	lime	180	[405 885 405 675]	[1035 1515  405  675]
643.518	1.0	1485397	1486397	ELCue	VGS	79	3	False	lime	180	[405 885 405 675]	[1035 1515  405  675]
644.926	2.0	1486805	1488831	ShowFixation	VGS	80	3	False	lime	600	[1350 1830  405  675]	[ 90 570 405 675]
646.952	0.2	1488831	1489067	BlankScreen	VGS	80	3	False	lime	600	[1350 1830  405  675]	[ 90 570 405 675]
647.188	1.0	1489067	1490067	ELCue	VGS	80	3	False	lime	600	[1350 1830  405  675]	[ 90 570 405 675]
665.597	2.0	1507476	1509502	ShowFixation	ANTI	81	4	False	red	180	[1035 1515  405  675]	[405 885 405 675]
667.623	0.2	1509502	1509737	BlankScreen	ANTI	81	4	False	red	180	[1035 1515  405  675]	[405 885 405 675]
667.858	1.0	1509737	1510737	ELCue	ANTI	81	4	False	red	180	[1035 1515  405  675]	[405 885 405 675]
669.267	6.0	1511146	1517172	ShowFixation	VGS	82	4	False	lime	180	[405 885 405 675]	[1035 1515  405  675]
675.293	0.2	1517172	1517411	BlankScreen	VGS	82	4	False	lime	180	[405 885 405 675]	[1035 1515  405  675]
675.532	1.0	1517411	1518411	ELCue	VGS	82	4	False	lime	180	[405 885 405 675]	[1035 1515  405  675]
676.944	6.0	1518823	1524863	ShowFixation	ANTI	83	4	False	red	40	[1350 1830  405  675]	[ 90 570 405 675]
682.984	0.2	1524863	1525102	BlankScreen	ANTI	83	4	False	red	40	[1350 1830  405  675]	[ 90 570 405 675]
683.223	1.0	1525102	1526102	ELCue	ANTI	83	4	False	red	40	[1350 1830  405  675]	[ 90 570 405 675]
684.633	2.0	1526512	1528537	ShowFixation	ANTI	84	4	False	red	460	[405 885 405 675]	[1035 1515  405  675]
686.658	0.2	1528537	1528773	BlankScreen	ANTI	84	4	False	red	460	[405 885 405 675]	[1035 1515  405  675]
686.894	1.0	1528773	1529773	ELCue	ANTI	84	4	False	red	460	[405 885 405 675]	[1035 1515  405  675]
688.28	2.0	1530159	1532191	ShowFixation	ANTI	85	4	False	red	460	[405 885 405 675]	[1035 1515  405  675]
690.312	0.2	1532191	1532426	BlankScreen	ANTI	85	4	False	red	460	[405 885 405 675]	[1035 1515  405  675]
690.547	1.0	1532426	1533426	ELCue	ANTI	85	4	False	red	460	[405 885 405 675]	[1035 1515  405  675]
691.954	6.0	1533833	1539861	ShowFixation	VGS	86	4	False	lime	600	[1350 1830  405  675]	[ 90 570 405 675]
697.982	0.2	1539861	1540101	BlankScreen	VGS	86	4	False	lime	600	[1350 1830  405  675]	[ 90 570 405 675]
698.222	1.0	1540101	1541101	ELCue	VGS	86	4	False	lime	600	[1350 1830  405  675]	[ 90 570 405 675]
699.617	6.0	1541496	1547535	ShowFixation	VGS	87	4	False	lime	40	[ 90 570 405 675]	[1350 1830  405  675]
705.656	0.2	1547535	1547775	BlankScreen	VGS	87	4	False	lime	40	[ 90 570 405 675]	[1350 1830  405  675]
705.896	1.0	1547775	1548775	ELCue	VGS	87	4	False	lime	40	[ 90 570 405 675]	[1350 1830  405  675]
707.306	2.0	1549185	1551210	ShowFixation	VGS	88	4	False	lime	180	[405 885 405 675]	[1035 1515  405  675]
709.331	0.2	1551210	1551445	BlankScreen	VGS	88	4	False	lime	180	[405 885 405 675]	[1035 1515  405  675]
709.566	1.0	1551445	1552445	ELCue	VGS	88	4	False	lime	180	[405 885 405 675]	[1035 1515  405  675]
710.971	6.0	1552850	1558880	ShowFixation	VGS	89	4	False	lime	600	[1350 1830  405  675]	[ 90 570 405 675]
717.001	0.2	1558880	1559119	BlankScreen	VGS	89	4	False	lime	600	[1350 1830  405  675]	[ 90 570 405 675]
717.24	1.0	1559119	1560119	ELCue	VGS	89	4	False	lime	600	[1350 1830  405  675]	[ 90 570 405 675]
718.649	2.0	1560528	1562554	ShowFixation	ANTI	90	4	False	red	40	[1350 1830  405  675]	[ 90 570 405 675]
720.675	0.2	1562554	1562790	BlankScreen	ANTI	90	4	False	red	40	[1350 1830  405  675]	[ 90 570 405 675]
720.911	1.0	1562790	1563790	ELCue	ANTI	90	4	False	red	40	[1350 1830  405  675]	[ 90 570 405 675]
722.32	2.0	1564199	1566225	ShowFixation	ANTI	91	4	False	red	40	[1350 1830  405  675]	[ 90 570 405 675]
724.346	0.2	1566225	1566460	BlankScreen	ANTI	91	4	False	red	40	[1350 1830  405  675]	[ 90 570 405 675]
724.581	1.0	1566460	1567460	ELCue	ANTI	91	4	False	red	40	[1350 1830  405  675]	[ 90 570 405 675]
725.993	6.0	1567872	1573911	ShowFixation	ANTI	92	4	False	red	460	[405 885 405 675]	[1035 1515  405  675]
732.032	0.2	1573911	1574151	BlankScreen	ANTI	92	4	False	red	460	[405 885 405 675]	[1035 1515  405  675]
732.272	1.0	1574151	1575151	ELCue	ANTI	92	4	False	red	460	[405 885 405 675]	[1035 1515  405  675]
733.66	6.0	1575539	1581569	ShowFixation	ANTI	93	4	False	red	180	[1035 1515  405  675]	[405 885 405 675]
739.69	0.2	1581569	1581808	BlankScreen	ANTI	93	4	False	red	180	[1035 1515  405  675]	[405 885 405 675]
739.929	1.0	1581808	1582808	ELCue	ANTI	93	4	False	red	180	[1035 1515  405  675]	[405 885 405 675]
741.339	6.0	1583218	1589243	ShowFixation	VGS	94	4	False	lime	460	[1035 1515  405  675]	[405 885 405 675]
747.364	0.2	1589243	1589483	BlankScreen	VGS	94	4	False	lime	460	[1035 1515  405  675]	[405 885 405 675]
747.604	1.0	1589483	1590483	ELCue	VGS	94	4	False	lime	460	[1035 1515  405  675]	[405 885 405 675]
749.01	6.0	1590889	1596918	ShowFixation	ANTI	95	4	False	red	600	[ 90 570 405 675]	[1350 1830  405  675]
755.04	0.2	1596919	1597158	BlankScreen	ANTI	95	4	False	red	600	[ 90 570 405 675]	[1350 1830  405  675]
755.279	1.0	1597158	1598158	ELCue	ANTI	95	4	False	red	600	[ 90 570 405 675]	[1350 1830  405  675]
756.672	2.0	1598551	1600592	ShowFixation	ANTI	96	4	False	red	180	[1035 1515  405  675]	[405 885 405 675]
758.714	0.2	1600593	1600827	BlankScreen	ANTI	96	4	False	red	180	[1035 1515  405  675]	[405 885 405 675]
758.949	1.0	1600828	1601828	ELCue	ANTI	96	4	False	red	180	[1035 1515  405  675]	[405 885 405 675]
760.34	2.0	1602219	1604246	ShowFixation	VGS	97	4	False	lime	40	[ 90 570 405 675]	[1350 1830  405  675]
762.367	0.2	1604246	1604482	BlankScreen	VGS	97	4	False	lime	40	[ 90 570 405 675]	[1350 1830  405  675]
762.603	1.0	1604482	1605482	ELCue	VGS	97	4	False	lime	40	[ 90 570 405 675]	[1350 1830  405  675]
764.009	2.0	1605888	1607917	ShowFixation	VGS	98	4	False	lime	600	[1350 1830  405  675]	[ 90 570 405 675]
766.038	0.2	1607917	1608152	BlankScreen	VGS	98	4	False	lime	600	[1350 1830  405  675]	[ 90 570 405 675]
766.273	1.0	1608152	1609152	ELCue	VGS	98	4	False	lime	600	[1350 1830  405  675]	[ 90 570 405 675]
767.681	6.0	1609560	1615587	ShowFixation	ANTI	99	4	False	red	40	[1350 1830  405  675]	[ 90 570 405 675]
773.708	0.2	1615587	1615826	BlankScreen	ANTI	99	4	False	red	40	[1350 1830  405  675]	[ 90 570 405 675]
773.947	1.0	1615826	1616826	ELCue	ANTI	99	4	False	red	40	[1350 1830  405  675]	[ 90 570 405 675]
775.355	6.0	1617234	1623261	ShowFixation	ANTI	100	4	False	red	180	[1035 1515  405  675]	[405 885 405 675]
781.382	0.2	1623261	1623500	BlankScreen	ANTI	100	4	False	red	180	[1035 1515  405  675]	[405 885 405 675]
781.621	1.0	1623500	1624500	ELCue	ANTI	100	4	False	red	180	[1035 1515  405  675]	[405 885 405 675]
783.032	2.0	1624911	1626952	ShowFixation	VGS	101	4	False	lime	40	[ 90 570 405 675]	[1350 1830  405  675]
785.073	0.2	1626952	1627187	BlankScreen	VGS	101	4	False	lime	40	[ 90 570 405 675]	[1350 1830  405  675]
785.308	1.0	1627187	1628187	ELCue	VGS	101	4	False	lime	40	[ 90 570 405 675]	[1350 1830  405  675]
786.685	2.0	1628564	1630589	ShowFixation	ANTI	102	4	False	red	600	[ 90 570 405 675]	[1350 1830  405  675]
788.71	0.2	1630589	1630824	BlankScreen	ANTI	102	4	False	red	600	[ 90 570 405 675]	[1350 1830  405  675]
788.945	1.0	1630824	1631824	ELCue	ANTI	102	4	False	red	600	[ 90 570 405 675]	[1350 1830  405  675]
790.357	2.0	1632236	1634276	ShowFixation	VGS	103	4	False	lime	460	[1035 1515  405  675]	[405 885 405 675]
792.397	0.2	1634276	1634511	BlankScreen	VGS	103	4	False	lime	460	[1035 1515  405  675]	[405 885 405 675]
792.632	1.0	1634511	1635511	ELCue	VGS	103	4	False	lime	460	[1035 1515  405  675]	[405 885 405 675]
794.039	2.0	1635918	1637946	ShowFixation	VGS	104	4	False	lime	600	[1350 1830  405  675]	[ 90 570 405 675]
796.067	0.2	1637946	1638182	BlankScreen	VGS	104	4	False	lime	600	[1350 1830  405  675]	[ 90 570 405 675]
796.303	1.0	1638182	1639182	ELCue	VGS	104	4	False	lime	600	[1350 1830  405  675]	[ 90 570 405 675]
797.712	6.0	1639591	1645617	ShowFixation	ANTI	105	4	False	red	460	[405 885 405 675]	[1035 1515  405  675]
803.738	0.2	1645617	1645856	BlankScreen	ANTI	105	4	False	red	460	[405 885 405 675]	[1035 1515  405  675]
803.977	1.0	1645856	1646856	ELCue	ANTI	105	4	False	red	460	[405 885 405 675]	[1035 1515  405  675]
805.385	6.0	1647264	1653291	ShowFixation	VGS	106	4	False	lime	40	[ 90 570 405 675]	[1350 1830  405  675]
811.412	0.2	1653291	1653530	BlankScreen	VGS	106	4	False	lime	40	[ 90 570 405 675]	[1350 1830  405  675]
811.651	1.0	1653530	1654530	ELCue	VGS	106	4	False	lime	40	[ 90 570 405 675]	[1350 1830  405  675]
813.064	2.0	1654943	1656982	ShowFixation	VGS	107	4	False	lime	180	[405 885 405 675]	[1035 1515  405  675]
815.103	0.2	1656982	1657217	BlankScreen	VGS	107	4	False	lime	180	[405 885 405 675]	[1035 1515  405  675]
815.338	1.0	1657217	1658217	ELCue	VGS	107	4	False	lime	180	[405 885 405 675]	[1035 1515  405  675]
816.75	6.0	1658629	1664669	ShowFixation	VGS	108	4	False	lime	180	[405 885 405 675]	[1035 1515  405  675]
822.79	0.2	1664669	1664908	BlankScreen	VGS	108	4	False	lime	180	[405 885 405 675]	[1035 1515  405  675]
823.029	1.0	1664908	1665908	ELCue	VGS	108	4	False	lime	180	[405 885 405 675]	[1035 1515  405  675]
824.406	6.0	1666285	1672310	ShowFixation	ANTI	109	4	False	red	600	[ 90 570 405 675]	[1350 1830  405  675]
830.431	0.2	1672310	1672549	BlankScreen	ANTI	109	4	False	red	600	[ 90 570 405 675]	[1350 1830  405  675]
830.67	1.0	1672549	1673549	ELCue	ANTI	109	4	False	red	600	[ 90 570 405 675]	[1350 1830  405  675]
832.063	6.0	1673942	1679967	ShowFixation	VGS	110	4	False	lime	460	[1035 1515  405  675]	[405 885 405 675]
838.088	0.2	1679967	1680206	BlankScreen	VGS	110	4	False	lime	460	[1035 1515  405  675]	[405 885 405 675]
838.327	1.0	1680206	1681206	ELCue	VGS	110	4	False	lime	460	[1035 1515  405  675]	[405 885 405 675]
839.739	2.0	1681618	1683658	ShowFixation	VGS	111	4	False	lime	460	[1035 1515  405  675]	[405 885 405 675]
841.779	0.2	1683658	1683893	BlankScreen	VGS	111	4	False	lime	460	[1035 1515  405  675]	[405 885 405 675]
842.014	1.0	1683893	1684893	ELCue	VGS	111	4	False	lime	460	[1035 1515  405  675]	[405 885 405 675]
843.406	2.0	1685285	1687312	ShowFixation	ANTI	112	4	False	red	600	[ 90 570 405 675]	[1350 1830  405  675]
845.433	0.2	1687312	1687547	BlankScreen	ANTI	112	4	False	red	600	[ 90 570 405 675]	[1350 1830  405  675]
845.668	1.0	1687547	1688547	ELCue	ANTI	112	4	False	red	600	[ 90 570 405 675]	[1350 1830  405  675]
