onset	duration	startTime	stopTime	eventIdentifier	trial_type	trial_number	block_number	is_practice	fixation_color	cue_side	aoi_correct	aoi_incorrect
0.147	6.0	513941	519978	ShowFixation	VGS	1	1	True	lime	460	[1035 1515  405  675]	[405 885 405 675]
6.184	0.2	519978	520218	BlankScreen	VGS	1	1	True	lime	460	[1035 1515  405  675]	[405 885 405 675]
6.424	1.0	520218	521258	ELCue	VGS	1	1	True	lime	460	[1035 1515  405  675]	[405 885 405 675]
7.881	6.0	521675	528303	ShowFixation	ANTI	2	1	True	red	40	[1350 1830  405  675]	[ 90 570 405 675]
14.51	0.2	528304	528542	BlankScreen	ANTI	2	1	True	red	40	[1350 1830  405  675]	[ 90 570 405 675]
14.748	1.0	528542	529583	ELCue	ANTI	2	1	True	red	40	[1350 1830  405  675]	[ 90 570 405 675]
16.191	2.0	529985	532628	ShowFixation	VGS	3	1	True	lime	600	[1350 1830  405  675]	[ 90 570 405 675]
18.834	0.2	532628	532863	BlankScreen	VGS	3	1	True	lime	600	[1350 1830  405  675]	[ 90 570 405 675]
19.069	1.0	532863	533904	ELCue	VGS	3	1	True	lime	600	[1350 1830  405  675]	[ 90 570 405 675]
20.512	6.0	534306	540950	ShowFixation	ANTI	4	1	True	red	600	[ 90 570 405 675]	[1350 1830  405  675]
27.156	0.2	540950	541189	BlankScreen	ANTI	4	1	True	red	600	[ 90 570 405 675]	[1350 1830  405  675]
27.395	1.0	541189	542229	ELCue	ANTI	4	1	True	red	600	[ 90 570 405 675]	[1350 1830  405  675]
28.855	2.0	542649	545258	ShowFixation	ANTI	5	1	True	red	600	[ 90 570 405 675]	[1350 1830  405  675]
31.464	0.2	545258	545477	BlankScreen	ANTI	5	1	True	red	600	[ 90 570 405 675]	[1350 1830  405  675]
31.683	1.0	545477	546500	ELCue	ANTI	5	1	True	red	600	[ 90 570 405 675]	[1350 1830  405  675]
33.112	6.0	546906	553546	ShowFixation	ANTI	6	1	True	red	460	[405 885 405 675]	[1035 1515  405  675]
39.752	0.2	553546	553785	BlankScreen	ANTI	6	1	True	red	460	[405 885 405 675]	[1035 1515  405  675]
39.991	1.0	553785	554826	ELCue	ANTI	6	1	True	red	460	[405 885 405 675]	[1035 1515  405  675]
41.447	2.0	555241	557871	ShowFixation	ANTI	7	1	True	red	40	[1350 1830  405  675]	[ 90 570 405 675]
44.077	0.2	557871	558106	BlankScreen	ANTI	7	1	True	red	40	[1350 1830  405  675]	[ 90 570 405 675]
44.312	1.0	558106	559146	ELCue	ANTI	7	1	True	red	40	[1350 1830  405  675]	[ 90 570 405 675]
45.772	2.0	559566	562192	ShowFixation	ANTI	8	1	True	red	180	[1035 1515  405  675]	[405 885 405 675]
48.398	0.2	562192	562427	BlankScreen	ANTI	8	1	True	red	180	[1035 1515  405  675]	[405 885 405 675]
48.633	1.0	562427	563467	ELCue	ANTI	8	1	True	red	180	[1035 1515  405  675]	[405 885 405 675]
50.092	2.0	563886	566512	ShowFixation	ANTI	9	1	True	red	460	[405 885 405 675]	[1035 1515  405  675]
52.718	0.2	566512	566748	BlankScreen	ANTI	9	1	True	red	460	[405 885 405 675]	[1035 1515  405  675]
52.954	1.0	566748	567788	ELCue	ANTI	9	1	True	red	460	[405 885 405 675]	[1035 1515  405  675]
54.414	6.0	568208	574833	ShowFixation	VGS	10	1	True	lime	40	[ 90 570 405 675]	[1350 1830  405  675]
61.039	0.2	574833	575073	BlankScreen	VGS	10	1	True	lime	40	[ 90 570 405 675]	[1350 1830  405  675]
61.279	1.0	575073	576113	ELCue	VGS	10	1	True	lime	40	[ 90 570 405 675]	[1350 1830  405  675]
62.738	2.0	576532	579158	ShowFixation	VGS	11	1	True	lime	40	[ 90 570 405 675]	[1350 1830  405  675]
65.364	0.2	579158	579394	BlankScreen	VGS	11	1	True	lime	40	[ 90 570 405 675]	[1350 1830  405  675]
65.6	1.0	579394	580434	ELCue	VGS	11	1	True	lime	40	[ 90 570 405 675]	[1350 1830  405  675]
67.066	2.0	580860	583479	ShowFixation	VGS	12	1	True	lime	460	[1035 1515  405  675]	[405 885 405 675]
69.685	0.2	583479	583714	BlankScreen	VGS	12	1	True	lime	460	[1035 1515  405  675]	[405 885 405 675]
69.92	1.0	583714	584755	ELCue	VGS	12	1	True	lime	460	[1035 1515  405  675]	[405 885 405 675]
71.378	6.0	585172	591800	ShowFixation	VGS	13	1	True	lime	180	[405 885 405 675]	[1035 1515  405  675]
78.006	0.2	591800	592039	BlankScreen	VGS	13	1	True	lime	180	[405 885 405 675]	[1035 1515  405  675]
78.245	1.0	592039	593080	ELCue	VGS	13	1	True	lime	180	[405 885 405 675]	[1035 1515  405  675]
79.706	6.0	593500	600125	ShowFixation	VGS	14	1	True	lime	600	[1350 1830  405  675]	[ 90 570 405 675]
86.331	0.2	600125	600364	BlankScreen	VGS	14	1	True	lime	600	[1350 1830  405  675]	[ 90 570 405 675]
86.57	1.0	600364	601404	ELCue	VGS	14	1	True	lime	600	[1350 1830  405  675]	[ 90 570 405 675]
88.028	6.0	601822	608433	ShowFixation	ANTI	15	1	True	red	180	[1035 1515  405  675]	[405 885 405 675]
94.639	0.2	608433	608672	BlankScreen	ANTI	15	1	True	red	180	[1035 1515  405  675]	[405 885 405 675]
94.878	1.0	608672	609713	ELCue	ANTI	15	1	True	red	180	[1035 1515  405  675]	[405 885 405 675]
96.333	2.0	610127	612758	ShowFixation	VGS	16	1	True	lime	180	[405 885 405 675]	[1035 1515  405  675]
98.964	0.2	612758	612993	BlankScreen	VGS	16	1	True	lime	180	[405 885 405 675]	[1035 1515  405  675]
99.199	1.0	612993	614034	ELCue	VGS	16	1	True	lime	180	[405 885 405 675]	[1035 1515  405  675]
141.101	2.0	654895	656935	ShowFixation	VGS	17	2	False	lime	600	[1350 1830  405  675]	[ 90 570 405 675]
143.141	0.2	656935	657170	BlankScreen	VGS	17	2	False	lime	600	[1350 1830  405  675]	[ 90 570 405 675]
143.376	1.0	657170	658170	ELCue	VGS	17	2	False	lime	600	[1350 1830  405  675]	[ 90 570 405 675]
144.802	2.0	658596	660622	ShowFixation	VGS	18	2	False	lime	600	[1350 1830  405  675]	[ 90 570 405 675]
146.828	0.2	660622	660857	BlankScreen	VGS	18	2	False	lime	600	[1350 1830  405  675]	[ 90 570 405 675]
147.063	1.0	660857	661857	ELCue	VGS	18	2	False	lime	600	[1350 1830  405  675]	[ 90 570 405 675]
148.489	6.0	662283	668309	ShowFixation	ANTI	19	2	False	red	180	[1035 1515  405  675]	[405 885 405 675]
154.515	0.2	668309	668548	BlankScreen	ANTI	19	2	False	red	180	[1035 1515  405  675]	[405 885 405 675]
154.755	1.0	668549	669549	ELCue	ANTI	19	2	False	red	180	[1035 1515  405  675]	[405 885 405 675]
156.182	6.0	669976	676016	ShowFixation	VGS	20	2	False	lime	460	[1035 1515  405  675]	[405 885 405 675]
162.223	0.2	676017	676256	BlankScreen	VGS	20	2	False	lime	460	[1035 1515  405  675]	[405 885 405 675]
162.463	1.0	676257	677257	ELCue	VGS	20	2	False	lime	460	[1035 1515  405  675]	[405 885 405 675]
163.891	6.0	677685	683725	ShowFixation	ANTI	21	2	False	red	40	[1350 1830  405  675]	[ 90 570 405 675]
169.931	0.2	683725	683964	BlankScreen	ANTI	21	2	False	red	40	[1350 1830  405  675]	[ 90 570 405 675]
170.17	1.0	683964	684964	ELCue	ANTI	21	2	False	red	40	[1350 1830  405  675]	[ 90 570 405 675]
171.594	2.0	685388	687416	ShowFixation	VGS	22	2	False	lime	460	[1035 1515  405  675]	[405 885 405 675]
173.622	0.2	687416	687651	BlankScreen	VGS	22	2	False	lime	460	[1035 1515  405  675]	[405 885 405 675]
173.857	1.0	687651	688651	ELCue	VGS	22	2	False	lime	460	[1035 1515  405  675]	[405 885 405 675]
175.28	2.0	689074	691103	ShowFixation	VGS	23	2	False	lime	180	[405 885 405 675]	[1035 1515  405  675]
177.309	0.2	691103	691338	BlankScreen	VGS	23	2	False	lime	180	[405 885 405 675]	[1035 1515  405  675]
177.544	1.0	691338	692338	ELCue	VGS	23	2	False	lime	180	[405 885 405 675]	[1035 1515  405  675]
178.968	2.0	692762	694790	ShowFixation	ANTI	24	2	False	red	600	[ 90 570 405 675]	[1350 1830  405  675]
180.996	0.2	694790	695025	BlankScreen	ANTI	24	2	False	red	600	[ 90 570 405 675]	[1350 1830  405  675]
181.231	1.0	695025	696025	ELCue	ANTI	24	2	False	red	600	[ 90 570 405 675]	[1350 1830  405  675]
182.657	2.0	696451	698477	ShowFixation	ANTI	25	2	False	red	180	[1035 1515  405  675]	[405 885 405 675]
184.683	0.2	698477	698712	BlankScreen	ANTI	25	2	False	red	180	[1035 1515  405  675]	[405 885 405 675]
184.918	1.0	698712	699712	ELCue	ANTI	25	2	False	red	180	[1035 1515  405  675]	[405 885 405 675]
186.344	2.0	700138	702164	ShowFixation	ANTI	26	2	False	red	460	[405 885 405 675]	[1035 1515  405  675]
188.37	0.2	702164	702399	BlankScreen	ANTI	26	2	False	red	460	[405 885 405 675]	[1035 1515  405  675]
188.605	1.0	702399	703399	ELCue	ANTI	26	2	False	red	460	[405 885 405 675]	[1035 1515  405  675]
190.033	6.0	703827	709867	ShowFixation	VGS	27	2	False	lime	40	[ 90 570 405 675]	[1350 1830  405  675]
196.073	0.2	709867	710107	BlankScreen	VGS	27	2	False	lime	40	[ 90 570 405 675]	[1350 1830  405  675]
196.313	1.0	710107	711107	ELCue	VGS	27	2	False	lime	40	[ 90 570 405 675]	[1350 1830  405  675]
197.734	2.0	711528	713558	ShowFixation	ANTI	28	2	False	red	600	[ 90 570 405 675]	[1350 1830  405  675]
199.764	0.2	713558	713794	BlankScreen	ANTI	28	2	False	red	600	[ 90 570 405 675]	[1350 1830  405  675]
200.0	1.0	713794	714794	ELCue	ANTI	28	2	False	red	600	[ 90 570 405 675]	[1350 1830  405  675]
201.426	2.0	715220	717245	ShowFixation	VGS	29	2	False	lime	40	[ 90 570 405 675]	[1350 1830  405  675]
203.451	0.2	717245	717481	BlankScreen	VGS	29	2	False	lime	40	[ 90 570 405 675]	[1350 1830  405  675]
203.687	1.0	717481	718481	ELCue	VGS	29	2	False	lime	40	[ 90 570 405 675]	[1350 1830  405  675]
205.111	2.0	718905	720932	ShowFixation	VGS	30	2	False	lime	460	[1035 1515  405  675]	[405 885 405 675]
207.138	0.2	720932	721168	BlankScreen	VGS	30	2	False	lime	460	[1035 1515  405  675]	[405 885 405 675]
207.374	1.0	721168	722168	ELCue	VGS	30	2	False	lime	460	[1035 1515  405  675]	[405 885 405 675]
208.801	2.0	722595	724636	ShowFixation	ANTI	31	2	False	red	40	[1350 1830  405  675]	[ 90 570 405 675]
210.842	0.2	724636	724871	BlankScreen	ANTI	31	2	False	red	40	[1350 1830  405  675]	[ 90 570 405 675]
211.077	1.0	724871	725871	ELCue	ANTI	31	2	False	red	40	[1350 1830  405  675]	[ 90 570 405 675]
212.5	6.0	726294	732323	ShowFixation	ANTI	32	2	False	red	600	[ 90 570 405 675]	[1350 1830  405  675]
218.529	0.2	732323	732562	BlankScreen	ANTI	32	2	False	red	600	[ 90 570 405 675]	[1350 1830  405  675]
218.768	1.0	732562	733562	ELCue	ANTI	32	2	False	red	600	[ 90 570 405 675]	[1350 1830  405  675]
220.193	6.0	733987	740014	ShowFixation	VGS	33	2	False	lime	600	[1350 1830  405  675]	[ 90 570 405 675]
226.22	0.2	740014	740253	BlankScreen	VGS	33	2	False	lime	600	[1350 1830  405  675]	[ 90 570 405 675]
226.459	1.0	740253	741253	ELCue	VGS	33	2	False	lime	600	[1350 1830  405  675]	[ 90 570 405 675]
227.886	6.0	741680	747705	ShowFixation	VGS	34	2	False	lime	180	[405 885 405 675]	[1035 1515  405  675]
233.911	0.2	747705	747944	BlankScreen	VGS	34	2	False	lime	180	[405 885 405 675]	[1035 1515  405  675]
234.15	1.0	747944	748944	ELCue	VGS	34	2	False	lime	180	[405 885 405 675]	[1035 1515  405  675]
235.578	6.0	749372	755412	ShowFixation	VGS	35	2	False	lime	600	[1350 1830  405  675]	[ 90 570 405 675]
241.618	0.2	755412	755652	BlankScreen	VGS	35	2	False	lime	600	[1350 1830  405  675]	[ 90 570 405 675]
241.858	1.0	755652	756652	ELCue	VGS	35	2	False	lime	600	[1350 1830  405  675]	[ 90 570 405 675]
243.282	6.0	757076	763103	ShowFixation	VGS	36	2	False	lime	40	[ 90 570 405 675]	[1350 1830  405  675]
249.309	0.2	763103	763343	BlankScreen	VGS	36	2	False	lime	40	[ 90 570 405 675]	[1350 1830  405  675]
249.549	1.0	763343	764343	ELCue	VGS	36	2	False	lime	40	[ 90 570 405 675]	[1350 1830  405  675]
250.97	2.0	764764	766794	ShowFixation	ANTI	37	2	False	red	180	[1035 1515  405  675]	[405 885 405 675]
253.0	0.2	766794	767030	BlankScreen	ANTI	37	2	False	red	180	[1035 1515  405  675]	[405 885 405 675]
253.236	1.0	767030	768030	ELCue	ANTI	37	2	False	red	180	[1035 1515  405  675]	[405 885 405 675]
254.66	2.0	768454	770481	ShowFixation	ANTI	38	2	False	red	40	[1350 1830  405  675]	[ 90 570 405 675]
256.687	0.2	770481	770716	BlankScreen	ANTI	38	2	False	red	40	[1350 1830  405  675]	[ 90 570 405 675]
256.922	1.0	770716	771716	ELCue	ANTI	38	2	False	red	40	[1350 1830  405  675]	[ 90 570 405 675]
258.345	2.0	772139	774169	ShowFixation	VGS	39	2	False	lime	40	[ 90 570 405 675]	[1350 1830  405  675]
260.375	0.2	774169	774403	BlankScreen	VGS	39	2	False	lime	40	[ 90 570 405 675]	[1350 1830  405  675]
260.609	1.0	774403	775403	ELCue	VGS	39	2	False	lime	40	[ 90 570 405 675]	[1350 1830  405  675]
262.034	6.0	775828	781855	ShowFixation	ANTI	40	2	False	red	180	[1035 1515  405  675]	[405 885 405 675]
268.061	0.2	781855	782094	BlankScreen	ANTI	40	2	False	red	180	[1035 1515  405  675]	[405 885 405 675]
268.3	1.0	782094	783094	ELCue	ANTI	40	2	False	red	180	[1035 1515  405  675]	[405 885 405 675]
269.722	6.0	783516	789546	ShowFixation	ANTI	41	2	False	red	40	[1350 1830  405  675]	[ 90 570 405 675]
275.752	0.2	789546	789785	BlankScreen	ANTI	41	2	False	red	40	[1350 1830  405  675]	[ 90 570 405 675]
275.991	1.0	789785	790785	ELCue	ANTI	41	2	False	red	40	[1350 1830  405  675]	[ 90 570 405 675]
277.383	6.0	791177	797204	ShowFixation	VGS	42	2	False	lime	180	[405 885 405 675]	[1035 1515  405  675]
283.41	0.2	797204	797443	BlankScreen	VGS	42	2	False	lime	180	[405 885 405 675]	[1035 1515  405  675]
283.649	1.0	797443	798443	ELCue	VGS	42	2	False	lime	180	[405 885 405 675]	[1035 1515  405  675]
285.071	6.0	798865	804894	ShowFixation	ANTI	43	2	False	red	600	[ 90 570 405 675]	[1350 1830  405  675]
291.1	0.2	804894	805134	BlankScreen	ANTI	43	2	False	red	600	[ 90 570 405 675]	[1350 1830  405  675]
291.34	1.0	805134	806134	ELCue	ANTI	43	2	False	red	600	[ 90 570 405 675]	[1350 1830  405  675]
292.764	6.0	806558	812586	ShowFixation	VGS	44	2	False	lime	460	[1035 1515  405  675]	[405 885 405 675]
298.792	0.2	812586	812826	BlankScreen	VGS	44	2	False	lime	460	[1035 1515  405  675]	[405 885 405 675]
299.032	1.0	812826	813826	ELCue	VGS	44	2	False	lime	460	[1035 1515  405  675]	[405 885 405 675]
300.458	6.0	814252	820294	ShowFixation	ANTI	45	2	False	red	460	[405 885 405 675]	[1035 1515  405  675]
306.5	0.2	820294	820533	BlankScreen	ANTI	45	2	False	red	460	[405 885 405 675]	[1035 1515  405  675]
306.739	1.0	820533	821533	ELCue	ANTI	45	2	False	red	460	[405 885 405 675]	[1035 1515  405  675]
308.166	2.0	821960	824002	ShowFixation	VGS	46	2	False	lime	180	[405 885 405 675]	[1035 1515  405  675]
310.208	0.2	824002	824237	BlankScreen	VGS	46	2	False	lime	180	[405 885 405 675]	[1035 1515  405  675]
310.443	1.0	824237	825237	ELCue	VGS	46	2	False	lime	180	[405 885 405 675]	[1035 1515  405  675]
311.867	6.0	825661	831689	ShowFixation	ANTI	47	2	False	red	460	[405 885 405 675]	[1035 1515  405  675]
317.895	0.2	831689	831928	BlankScreen	ANTI	47	2	False	red	460	[405 885 405 675]	[1035 1515  405  675]
318.134	1.0	831928	832928	ELCue	ANTI	47	2	False	red	460	[405 885 405 675]	[1035 1515  405  675]
319.541	2.0	833335	835363	ShowFixation	ANTI	48	2	False	red	460	[405 885 405 675]	[1035 1515  405  675]
321.569	0.2	835363	835598	BlankScreen	ANTI	48	2	False	red	460	[405 885 405 675]	[1035 1515  405  675]
321.804	1.0	835598	836598	ELCue	ANTI	48	2	False	red	460	[405 885 405 675]	[1035 1515  405  675]
339.51	2.0	853304	855332	ShowFixation	VGS	49	3	False	lime	40	[ 90 570 405 675]	[1350 1830  405  675]
341.538	0.2	855332	855568	BlankScreen	VGS	49	3	False	lime	40	[ 90 570 405 675]	[1350 1830  405  675]
341.774	1.0	855568	856568	ELCue	VGS	49	3	False	lime	40	[ 90 570 405 675]	[1350 1830  405  675]
343.201	6.0	856995	863019	ShowFixation	ANTI	50	3	False	red	40	[1350 1830  405  675]	[ 90 570 405 675]
349.225	0.2	863019	863259	BlankScreen	ANTI	50	3	False	red	40	[1350 1830  405  675]	[ 90 570 405 675]
349.465	1.0	863259	864259	ELCue	ANTI	50	3	False	red	40	[1350 1830  405  675]	[ 90 570 405 675]
350.89	6.0	864684	870710	ShowFixation	VGS	51	3	False	lime	40	[ 90 570 405 675]	[1350 1830  405  675]
356.916	0.2	870710	870950	BlankScreen	VGS	51	3	False	lime	40	[ 90 570 405 675]	[1350 1830  405  675]
357.156	1.0	870950	871950	ELCue	VGS	51	3	False	lime	40	[ 90 570 405 675]	[1350 1830  405  675]
358.585	6.0	872379	878418	ShowFixation	VGS	52	3	False	lime	600	[1350 1830  405  675]	[ 90 570 405 675]
364.624	0.2	878418	878657	BlankScreen	VGS	52	3	False	lime	600	[1350 1830  405  675]	[ 90 570 405 675]
364.863	1.0	878657	879657	ELCue	VGS	52	3	False	lime	600	[1350 1830  405  675]	[ 90 570 405 675]
366.269	6.0	880063	886092	ShowFixation	ANTI	53	3	False	red	40	[1350 1830  405  675]	[ 90 570 405 675]
372.298	0.2	886092	886331	BlankScreen	ANTI	53	3	False	red	40	[1350 1830  405  675]	[ 90 570 405 675]
372.537	1.0	886331	887331	ELCue	ANTI	53	3	False	red	40	[1350 1830  405  675]	[ 90 570 405 675]
373.964	2.0	887758	889783	ShowFixation	ANTI	54	3	False	red	600	[ 90 570 405 675]	[1350 1830  405  675]
375.989	0.2	889783	890018	BlankScreen	ANTI	54	3	False	red	600	[ 90 570 405 675]	[1350 1830  405  675]
376.224	1.0	890018	891018	ELCue	ANTI	54	3	False	red	600	[ 90 570 405 675]	[1350 1830  405  675]
377.65	6.0	891444	897470	ShowFixation	VGS	55	3	False	lime	180	[405 885 405 675]	[1035 1515  405  675]
383.676	0.2	897470	897709	BlankScreen	VGS	55	3	False	lime	180	[405 885 405 675]	[1035 1515  405  675]
383.915	1.0	897709	898709	ELCue	VGS	55	3	False	lime	180	[405 885 405 675]	[1035 1515  405  675]
385.324	6.0	899118	905144	ShowFixation	ANTI	56	3	False	red	600	[ 90 570 405 675]	[1350 1830  405  675]
391.35	0.2	905144	905384	BlankScreen	ANTI	56	3	False	red	600	[ 90 570 405 675]	[1350 1830  405  675]
391.59	1.0	905384	906384	ELCue	ANTI	56	3	False	red	600	[ 90 570 405 675]	[1350 1830  405  675]
393.011	6.0	906805	912835	ShowFixation	VGS	57	3	False	lime	600	[1350 1830  405  675]	[ 90 570 405 675]
399.041	0.2	912835	913074	BlankScreen	VGS	57	3	False	lime	600	[1350 1830  405  675]	[ 90 570 405 675]
399.28	1.0	913074	914074	ELCue	VGS	57	3	False	lime	600	[1350 1830  405  675]	[ 90 570 405 675]
400.7	2.0	914494	916526	ShowFixation	VGS	58	3	False	lime	460	[1035 1515  405  675]	[405 885 405 675]
402.732	0.2	916526	916761	BlankScreen	VGS	58	3	False	lime	460	[1035 1515  405  675]	[405 885 405 675]
402.967	1.0	916761	917761	ELCue	VGS	58	3	False	lime	460	[1035 1515  405  675]	[405 885 405 675]
404.395	6.0	918189	924230	ShowFixation	ANTI	59	3	False	red	180	[1035 1515  405  675]	[405 885 405 675]
410.436	0.2	924230	924469	BlankScreen	ANTI	59	3	False	red	180	[1035 1515  405  675]	[405 885 405 675]
410.675	1.0	924469	925469	ELCue	ANTI	59	3	False	red	180	[1035 1515  405  675]	[405 885 405 675]
412.101	6.0	925895	931921	ShowFixation	VGS	60	3	False	lime	40	[ 90 570 405 675]	[1350 1830  405  675]
418.127	0.2	931921	932160	BlankScreen	VGS	60	3	False	lime	40	[ 90 570 405 675]	[1350 1830  405  675]
418.366	1.0	932160	933160	ELCue	VGS	60	3	False	lime	40	[ 90 570 405 675]	[1350 1830  405  675]
419.793	2.0	933587	935612	ShowFixation	ANTI	61	3	False	red	40	[1350 1830  405  675]	[ 90 570 405 675]
421.818	0.2	935612	935847	BlankScreen	ANTI	61	3	False	red	40	[1350 1830  405  675]	[ 90 570 405 675]
422.053	1.0	935847	936847	ELCue	ANTI	61	3	False	red	40	[1350 1830  405  675]	[ 90 570 405 675]
423.481	2.0	937275	939315	ShowFixation	VGS	62	3	False	lime	180	[405 885 405 675]	[1035 1515  405  675]
425.522	0.2	939316	939551	BlankScreen	VGS	62	3	False	lime	180	[405 885 405 675]	[1035 1515  405  675]
425.758	1.0	939552	940552	ELCue	VGS	62	3	False	lime	180	[405 885 405 675]	[1035 1515  405  675]
427.181	2.0	940975	943003	ShowFixation	ANTI	63	3	False	red	460	[405 885 405 675]	[1035 1515  405  675]
429.209	0.2	943003	943238	BlankScreen	ANTI	63	3	False	red	460	[405 885 405 675]	[1035 1515  405  675]
429.445	1.0	943239	944239	ELCue	ANTI	63	3	False	red	460	[405 885 405 675]	[1035 1515  405  675]
430.866	6.0	944660	950690	ShowFixation	VGS	64	3	False	lime	180	[405 885 405 675]	[1035 1515  405  675]
436.896	0.2	950690	950929	BlankScreen	VGS	64	3	False	lime	180	[405 885 405 675]	[1035 1515  405  675]
437.135	1.0	950929	951929	ELCue	VGS	64	3	False	lime	180	[405 885 405 675]	[1035 1515  405  675]
438.555	2.0	952349	954381	ShowFixation	VGS	65	3	False	lime	180	[405 885 405 675]	[1035 1515  405  675]
440.587	0.2	954381	954616	BlankScreen	VGS	65	3	False	lime	180	[405 885 405 675]	[1035 1515  405  675]
440.822	1.0	954616	955616	ELCue	VGS	65	3	False	lime	180	[405 885 405 675]	[1035 1515  405  675]
442.244	6.0	956038	962068	ShowFixation	ANTI	66	3	False	red	180	[1035 1515  405  675]	[405 885 405 675]
448.274	0.2	962068	962307	BlankScreen	ANTI	66	3	False	red	180	[1035 1515  405  675]	[405 885 405 675]
448.513	1.0	962307	963307	ELCue	ANTI	66	3	False	red	180	[1035 1515  405  675]	[405 885 405 675]
449.938	6.0	963732	969759	ShowFixation	VGS	67	3	False	lime	460	[1035 1515  405  675]	[405 885 405 675]
455.965	0.2	969759	969998	BlankScreen	VGS	67	3	False	lime	460	[1035 1515  405  675]	[405 885 405 675]
456.204	1.0	969998	970998	ELCue	VGS	67	3	False	lime	460	[1035 1515  405  675]	[405 885 405 675]
457.631	2.0	971425	973450	ShowFixation	ANTI	68	3	False	red	600	[ 90 570 405 675]	[1350 1830  405  675]
459.656	0.2	973450	973685	BlankScreen	ANTI	68	3	False	red	600	[ 90 570 405 675]	[1350 1830  405  675]
459.891	1.0	973685	974685	ELCue	ANTI	68	3	False	red	600	[ 90 570 405 675]	[1350 1830  405  675]
461.318	2.0	975112	977137	ShowFixation	ANTI	69	3	False	red	180	[1035 1515  405  675]	[405 885 405 675]
463.343	0.2	977137	977372	BlankScreen	ANTI	69	3	False	red	180	[1035 1515  405  675]	[405 885 405 675]
463.578	1.0	977372	978372	ELCue	ANTI	69	3	False	red	180	[1035 1515  405  675]	[405 885 405 675]
465.002	2.0	978796	980824	ShowFixation	VGS	70	3	False	lime	460	[1035 1515  405  675]	[405 885 405 675]
467.03	0.2	980824	981059	BlankScreen	VGS	70	3	False	lime	460	[1035 1515  405  675]	[405 885 405 675]
467.265	1.0	981059	982059	ELCue	VGS	70	3	False	lime	460	[1035 1515  405  675]	[405 885 405 675]
468.694	2.0	982488	984527	ShowFixation	VGS	71	3	False	lime	40	[ 90 570 405 675]	[1350 1830  405  675]
470.733	0.2	984527	984763	BlankScreen	VGS	71	3	False	lime	40	[ 90 570 405 675]	[1350 1830  405  675]
470.969	1.0	984763	985763	ELCue	VGS	71	3	False	lime	40	[ 90 570 405 675]	[1350 1830  405  675]
472.391	6.0	986185	992214	ShowFixation	VGS	72	3	False	lime	460	[1035 1515  405  675]	[405 885 405 675]
478.42	0.2	992214	992454	BlankScreen	VGS	72	3	False	lime	460	[1035 1515  405  675]	[405 885 405 675]
478.66	1.0	992454	993454	ELCue	VGS	72	3	False	lime	460	[1035 1515  405  675]	[405 885 405 675]
480.088	2.0	993882	995922	ShowFixation	ANTI	73	3	False	red	460	[405 885 405 675]	[1035 1515  405  675]
482.128	0.2	995922	996157	BlankScreen	ANTI	73	3	False	red	460	[405 885 405 675]	[1035 1515  405  675]
482.363	1.0	996157	997157	ELCue	ANTI	73	3	False	red	460	[405 885 405 675]	[1035 1515  405  675]
483.789	2.0	997583	999609	ShowFixation	VGS	74	3	False	lime	600	[1350 1830  405  675]	[ 90 570 405 675]
485.815	0.2	999609	999844	BlankScreen	VGS	74	3	False	lime	600	[1350 1830  405  675]	[ 90 570 405 675]
486.05	1.0	999844	1000844	ELCue	VGS	74	3	False	lime	600	[1350 1830  405  675]	[ 90 570 405 675]
487.472	2.0	1001266	1003296	ShowFixation	VGS	75	3	False	lime	600	[1350 1830  405  675]	[ 90 570 405 675]
489.502	0.2	1003296	1003531	BlankScreen	VGS	75	3	False	lime	600	[1350 1830  405  675]	[ 90 570 405 675]
489.737	1.0	1003531	1004531	ELCue	VGS	75	3	False	lime	600	[1350 1830  405  675]	[ 90 570 405 675]
491.146	6.0	1004940	1010966	ShowFixation	ANTI	76	3	False	red	460	[405 885 405 675]	[1035 1515  405  675]
497.172	0.2	1010966	1011206	BlankScreen	ANTI	76	3	False	red	460	[405 885 405 675]	[1035 1515  405  675]
497.412	1.0	1011206	1012206	ELCue	ANTI	76	3	False	red	460	[405 885 405 675]	[1035 1515  405  675]
498.835	6.0	1012629	1018657	ShowFixation	ANTI	77	3	False	red	600	[ 90 570 405 675]	[1350 1830  405  675]
504.863	0.2	1018657	1018896	BlankScreen	ANTI	77	3	False	red	600	[ 90 570 405 675]	[1350 1830  405  675]
505.102	1.0	1018896	1019896	ELCue	ANTI	77	3	False	red	600	[ 90 570 405 675]	[1350 1830  405  675]
506.528	2.0	1020322	1022348	ShowFixation	ANTI	78	3	False	red	40	[1350 1830  405  675]	[ 90 570 405 675]
508.554	0.2	1022348	1022584	BlankScreen	ANTI	78	3	False	red	40	[1350 1830  405  675]	[ 90 570 405 675]
508.79	1.0	1022584	1023584	ELCue	ANTI	78	3	False	red	40	[1350 1830  405  675]	[ 90 570 405 675]
510.216	6.0	1024010	1030035	ShowFixation	ANTI	79	3	False	red	460	[405 885 405 675]	[1035 1515  405  675]
516.241	0.2	1030035	1030274	BlankScreen	ANTI	79	3	False	red	460	[405 885 405 675]	[1035 1515  405  675]
516.48	1.0	1030274	1031274	ELCue	ANTI	79	3	False	red	460	[405 885 405 675]	[1035 1515  405  675]
517.9	2.0	1031694	1033726	ShowFixation	ANTI	80	3	False	red	180	[1035 1515  405  675]	[405 885 405 675]
519.932	0.2	1033726	1033961	BlankScreen	ANTI	80	3	False	red	180	[1035 1515  405  675]	[405 885 405 675]
520.167	1.0	1033961	1034961	ELCue	ANTI	80	3	False	red	180	[1035 1515  405  675]	[405 885 405 675]
535.619	6.0	1049413	1055443	ShowFixation	ANTI	81	4	False	red	600	[ 90 570 405 675]	[1350 1830  405  675]
541.649	0.2	1055443	1055683	BlankScreen	ANTI	81	4	False	red	600	[ 90 570 405 675]	[1350 1830  405  675]
541.889	1.0	1055683	1056683	ELCue	ANTI	81	4	False	red	600	[ 90 570 405 675]	[1350 1830  405  675]
543.313	6.0	1057107	1063134	ShowFixation	ANTI	82	4	False	red	460	[405 885 405 675]	[1035 1515  405  675]
549.34	0.2	1063134	1063374	BlankScreen	ANTI	82	4	False	red	460	[405 885 405 675]	[1035 1515  405  675]
549.58	1.0	1063374	1064374	ELCue	ANTI	82	4	False	red	460	[405 885 405 675]	[1035 1515  405  675]
551.002	6.0	1064796	1070826	ShowFixation	VGS	83	4	False	lime	40	[ 90 570 405 675]	[1350 1830  405  675]
557.032	0.2	1070826	1071065	BlankScreen	VGS	83	4	False	lime	40	[ 90 570 405 675]	[1350 1830  405  675]
557.272	1.0	1071066	1072066	ELCue	VGS	83	4	False	lime	40	[ 90 570 405 675]	[1350 1830  405  675]
558.695	2.0	1072489	1074516	ShowFixation	ANTI	84	4	False	red	40	[1350 1830  405  675]	[ 90 570 405 675]
560.723	0.2	1074517	1074752	BlankScreen	ANTI	84	4	False	red	40	[1350 1830  405  675]	[ 90 570 405 675]
560.959	1.0	1074753	1075753	ELCue	ANTI	84	4	False	red	40	[1350 1830  405  675]	[ 90 570 405 675]
562.38	6.0	1076174	1082204	ShowFixation	VGS	85	4	False	lime	40	[ 90 570 405 675]	[1350 1830  405  675]
568.41	0.2	1082204	1082443	BlankScreen	VGS	85	4	False	lime	40	[ 90 570 405 675]	[1350 1830  405  675]
568.649	1.0	1082443	1083443	ELCue	VGS	85	4	False	lime	40	[ 90 570 405 675]	[1350 1830  405  675]
570.071	2.0	1083865	1085895	ShowFixation	VGS	86	4	False	lime	600	[1350 1830  405  675]	[ 90 570 405 675]
572.101	0.2	1085895	1086130	BlankScreen	VGS	86	4	False	lime	600	[1350 1830  405  675]	[ 90 570 405 675]
572.336	1.0	1086130	1087130	ELCue	VGS	86	4	False	lime	600	[1350 1830  405  675]	[ 90 570 405 675]
573.759	6.0	1087553	1093582	ShowFixation	VGS	87	4	False	lime	460	[1035 1515  405  675]	[405 885 405 675]
579.788	0.2	1093582	1093821	BlankScreen	VGS	87	4	False	lime	460	[1035 1515  405  675]	[405 885 405 675]
580.027	1.0	1093821	1094821	ELCue	VGS	87	4	False	lime	460	[1035 1515  405  675]	[405 885 405 675]
581.447	2.0	1095241	1097273	ShowFixation	VGS	88	4	False	lime	460	[1035 1515  405  675]	[405 885 405 675]
583.479	0.2	1097273	1097508	BlankScreen	VGS	88	4	False	lime	460	[1035 1515  405  675]	[405 885 405 675]
583.714	1.0	1097508	1098508	ELCue	VGS	88	4	False	lime	460	[1035 1515  405  675]	[405 885 405 675]
585.142	6.0	1098936	1104977	ShowFixation	ANTI	89	4	False	red	180	[1035 1515  405  675]	[405 885 405 675]
591.183	0.2	1104977	1105216	BlankScreen	ANTI	89	4	False	red	180	[1035 1515  405  675]	[405 885 405 675]
591.422	1.0	1105216	1106216	ELCue	ANTI	89	4	False	red	180	[1035 1515  405  675]	[405 885 405 675]
592.848	6.0	1106642	1112668	ShowFixation	VGS	90	4	False	lime	180	[405 885 405 675]	[1035 1515  405  675]
598.874	0.2	1112668	1112907	BlankScreen	VGS	90	4	False	lime	180	[405 885 405 675]	[1035 1515  405  675]
599.113	1.0	1112907	1113907	ELCue	VGS	90	4	False	lime	180	[405 885 405 675]	[1035 1515  405  675]
600.538	2.0	1114332	1116358	ShowFixation	ANTI	91	4	False	red	40	[1350 1830  405  675]	[ 90 570 405 675]
602.564	0.2	1116358	1116594	BlankScreen	ANTI	91	4	False	red	40	[1350 1830  405  675]	[ 90 570 405 675]
602.8	1.0	1116594	1117594	ELCue	ANTI	91	4	False	red	40	[1350 1830  405  675]	[ 90 570 405 675]
604.222	6.0	1118016	1124045	ShowFixation	VGS	92	4	False	lime	460	[1035 1515  405  675]	[405 885 405 675]
610.251	0.2	1124045	1124285	BlankScreen	VGS	92	4	False	lime	460	[1035 1515  405  675]	[405 885 405 675]
610.491	1.0	1124285	1125285	ELCue	VGS	92	4	False	lime	460	[1035 1515  405  675]	[405 885 405 675]
611.914	2.0	1125708	1127736	ShowFixation	VGS	93	4	False	lime	600	[1350 1830  405  675]	[ 90 570 405 675]
613.942	0.2	1127736	1127972	BlankScreen	VGS	93	4	False	lime	600	[1350 1830  405  675]	[ 90 570 405 675]
614.178	1.0	1127972	1128972	ELCue	VGS	93	4	False	lime	600	[1350 1830  405  675]	[ 90 570 405 675]
615.605	6.0	1129399	1135440	ShowFixation	VGS	94	4	False	lime	600	[1350 1830  405  675]	[ 90 570 405 675]
621.646	0.2	1135440	1135679	BlankScreen	VGS	94	4	False	lime	600	[1350 1830  405  675]	[ 90 570 405 675]
621.885	1.0	1135679	1136679	ELCue	VGS	94	4	False	lime	600	[1350 1830  405  675]	[ 90 570 405 675]
623.314	2.0	1137108	1139148	ShowFixation	VGS	95	4	False	lime	180	[405 885 405 675]	[1035 1515  405  675]
625.354	0.2	1139148	1139383	BlankScreen	VGS	95	4	False	lime	180	[405 885 405 675]	[1035 1515  405  675]
625.589	1.0	1139383	1140383	ELCue	VGS	95	4	False	lime	180	[405 885 405 675]	[1035 1515  405  675]
627.011	2.0	1140805	1142835	ShowFixation	ANTI	96	4	False	red	600	[ 90 570 405 675]	[1350 1830  405  675]
629.041	0.2	1142835	1143070	BlankScreen	ANTI	96	4	False	red	600	[ 90 570 405 675]	[1350 1830  405  675]
629.276	1.0	1143070	1144070	ELCue	ANTI	96	4	False	red	600	[ 90 570 405 675]	[1350 1830  405  675]
630.706	6.0	1144500	1150538	ShowFixation	ANTI	97	4	False	red	180	[1035 1515  405  675]	[405 885 405 675]
636.744	0.2	1150538	1150777	BlankScreen	ANTI	97	4	False	red	180	[1035 1515  405  675]	[405 885 405 675]
636.983	1.0	1150777	1151777	ELCue	ANTI	97	4	False	red	180	[1035 1515  405  675]	[405 885 405 675]
638.41	2.0	1152204	1154229	ShowFixation	VGS	98	4	False	lime	180	[405 885 405 675]	[1035 1515  405  675]
640.435	0.2	1154229	1154464	BlankScreen	VGS	98	4	False	lime	180	[405 885 405 675]	[1035 1515  405  675]
640.67	1.0	1154464	1155464	ELCue	VGS	98	4	False	lime	180	[405 885 405 675]	[1035 1515  405  675]
642.097	6.0	1155891	1161916	ShowFixation	ANTI	99	4	False	red	40	[1350 1830  405  675]	[ 90 570 405 675]
648.122	0.2	1161916	1162155	BlankScreen	ANTI	99	4	False	red	40	[1350 1830  405  675]	[ 90 570 405 675]
648.361	1.0	1162155	1163155	ELCue	ANTI	99	4	False	red	40	[1350 1830  405  675]	[ 90 570 405 675]
649.786	2.0	1163580	1165607	ShowFixation	VGS	100	4	False	lime	460	[1035 1515  405  675]	[405 885 405 675]
651.813	0.2	1165607	1165842	BlankScreen	VGS	100	4	False	lime	460	[1035 1515  405  675]	[405 885 405 675]
652.048	1.0	1165842	1166842	ELCue	VGS	100	4	False	lime	460	[1035 1515  405  675]	[405 885 405 675]
653.471	2.0	1167265	1169294	ShowFixation	VGS	101	4	False	lime	40	[ 90 570 405 675]	[1350 1830  405  675]
655.5	0.2	1169294	1169529	BlankScreen	VGS	101	4	False	lime	40	[ 90 570 405 675]	[1350 1830  405  675]
655.735	1.0	1169529	1170529	ELCue	VGS	101	4	False	lime	40	[ 90 570 405 675]	[1350 1830  405  675]
657.162	6.0	1170956	1176981	ShowFixation	VGS	102	4	False	lime	180	[405 885 405 675]	[1035 1515  405  675]
663.187	0.2	1176981	1177220	BlankScreen	VGS	102	4	False	lime	180	[405 885 405 675]	[1035 1515  405  675]
663.426	1.0	1177220	1178220	ELCue	VGS	102	4	False	lime	180	[405 885 405 675]	[1035 1515  405  675]
664.852	2.0	1178646	1180672	ShowFixation	ANTI	103	4	False	red	460	[405 885 405 675]	[1035 1515  405  675]
666.878	0.2	1180672	1180907	BlankScreen	ANTI	103	4	False	red	460	[405 885 405 675]	[1035 1515  405  675]
667.113	1.0	1180907	1181907	ELCue	ANTI	103	4	False	red	460	[405 885 405 675]	[1035 1515  405  675]
668.535	6.0	1182329	1188359	ShowFixation	ANTI	104	4	False	red	40	[1350 1830  405  675]	[ 90 570 405 675]
674.565	0.2	1188359	1188598	BlankScreen	ANTI	104	4	False	red	40	[1350 1830  405  675]	[ 90 570 405 675]
674.804	1.0	1188598	1189598	ELCue	ANTI	104	4	False	red	40	[1350 1830  405  675]	[ 90 570 405 675]
676.231	2.0	1190025	1192050	ShowFixation	ANTI	105	4	False	red	600	[ 90 570 405 675]	[1350 1830  405  675]
678.256	0.2	1192050	1192285	BlankScreen	ANTI	105	4	False	red	600	[ 90 570 405 675]	[1350 1830  405  675]
678.491	1.0	1192285	1193285	ELCue	ANTI	105	4	False	red	600	[ 90 570 405 675]	[1350 1830  405  675]
679.905	2.0	1193699	1195737	ShowFixation	ANTI	106	4	False	red	180	[1035 1515  405  675]	[405 885 405 675]
681.943	0.2	1195737	1195972	BlankScreen	ANTI	106	4	False	red	180	[1035 1515  405  675]	[405 885 405 675]
682.178	1.0	1195972	1196972	ELCue	ANTI	106	4	False	red	180	[1035 1515  405  675]	[405 885 405 675]
683.598	2.0	1197392	1199424	ShowFixation	ANTI	107	4	False	red	460	[405 885 405 675]	[1035 1515  405  675]
685.63	0.2	1199424	1199659	BlankScreen	ANTI	107	4	False	red	460	[405 885 405 675]	[1035 1515  405  675]
685.866	1.0	1199660	1200660	ELCue	ANTI	107	4	False	red	460	[405 885 405 675]	[1035 1515  405  675]
687.274	6.0	1201068	1207094	ShowFixation	VGS	108	4	False	lime	600	[1350 1830  405  675]	[ 90 570 405 675]
693.301	0.2	1207095	1207334	BlankScreen	VGS	108	4	False	lime	600	[1350 1830  405  675]	[ 90 570 405 675]
693.54	1.0	1207334	1208334	ELCue	VGS	108	4	False	lime	600	[1350 1830  405  675]	[ 90 570 405 675]
694.963	6.0	1208757	1214786	ShowFixation	ANTI	109	4	False	red	600	[ 90 570 405 675]	[1350 1830  405  675]
700.992	0.2	1214786	1215025	BlankScreen	ANTI	109	4	False	red	600	[ 90 570 405 675]	[1350 1830  405  675]
701.231	1.0	1215025	1216025	ELCue	ANTI	109	4	False	red	600	[ 90 570 405 675]	[1350 1830  405  675]
702.656	2.0	1216450	1218477	ShowFixation	ANTI	110	4	False	red	180	[1035 1515  405  675]	[405 885 405 675]
704.683	0.2	1218477	1218712	BlankScreen	ANTI	110	4	False	red	180	[1035 1515  405  675]	[405 885 405 675]
704.918	1.0	1218712	1219712	ELCue	ANTI	110	4	False	red	180	[1035 1515  405  675]	[405 885 405 675]
706.344	6.0	1220138	1226164	ShowFixation	ANTI	111	4	False	red	460	[405 885 405 675]	[1035 1515  405  675]
712.37	0.2	1226164	1226403	BlankScreen	ANTI	111	4	False	red	460	[405 885 405 675]	[1035 1515  405  675]
712.609	1.0	1226403	1227403	ELCue	ANTI	111	4	False	red	460	[405 885 405 675]	[1035 1515  405  675]
714.033	2.0	1227827	1229855	ShowFixation	VGS	112	4	False	lime	40	[ 90 570 405 675]	[1350 1830  405  675]
716.061	0.2	1229855	1230090	BlankScreen	VGS	112	4	False	lime	40	[ 90 570 405 675]	[1350 1830  405  675]
716.296	1.0	1230090	1231090	ELCue	VGS	112	4	False	lime	40	[ 90 570 405 675]	[1350 1830  405  675]
