participant_id	condition	accuracy	reaction_time
sub-23677	congruent	1	1.018
sub-23677	congruent	1	0.456
sub-23677	incongruent	1	0.528
sub-23677	incongruent	1	0.584
sub-23677	incongruent	1	0.677
sub-23677	incongruent	1	0.506
sub-23677	congruent	1	0.330
sub-23677	congruent	1	0.406
sub-23677	incongruent	1	0.567
sub-23677	incongruent	1	0.418
sub-23677	incongruent	1	0.582
sub-23677	congruent	1	0.302
sub-23677	congruent	1	0.357
sub-23677	incongruent	0	0.354
sub-23677	incongruent	1	0.564
sub-23677	incongruent	1	0.521
sub-23677	incongruent	1	0.479
sub-23677	congruent	1	0.366
sub-23677	incongruent	1	0.534
sub-23677	congruent	1	0.433
sub-23677	incongruent	1	0.531
sub-23677	congruent	1	0.353
sub-23677	incongruent	0	0.288
sub-23677	congruent	1	0.372
sub-23677	incongruent	1	0.504
sub-23677	congruent	1	0.337
sub-23677	congruent	1	0.441
sub-23677	congruent	1	0.421
sub-23677	incongruent	1	0.492
sub-23677	congruent	1	0.307
sub-23677	incongruent	0	0.343
sub-23677	congruent	1	0.527
sub-23677	incongruent	1	0.456
sub-23677	congruent	1	0.348
sub-23677	congruent	1	0.347
sub-23677	congruent	1	0.373
sub-23677	congruent	1	0.355
sub-23677	congruent	1	0.430
sub-23677	incongruent	1	0.767
sub-23677	congruent	1	0.361
sub-23677	congruent	1	0.372
sub-23677	congruent	1	0.354
sub-23677	congruent	1	0.516
sub-23677	incongruent	1	0.489
sub-23677	congruent	1	0.664
sub-23677	incongruent	1	0.575
sub-23677	incongruent	1	0.585
sub-23677	congruent	1	0.417
sub-23677	congruent	1	0.447
sub-23677	incongruent	1	0.478
sub-23677	incongruent	1	0.613
sub-23677	incongruent	1	0.484
sub-23677	incongruent	1	0.471
sub-23677	incongruent	1	0.426
sub-23677	congruent	1	0.365
sub-23677	incongruent	0	0.274
sub-23677	incongruent	1	0.488
sub-23677	incongruent	1	0.474
sub-23677	congruent	1	0.279
sub-23677	congruent	1	0.328
sub-23677	incongruent	0	0.676
sub-23677	congruent	1	0.352
sub-23677	congruent	1	0.271
sub-23677	congruent	1	0.368
sub-23677	congruent	1	0.308
sub-23677	incongruent	0	0.264
sub-23677	incongruent	1	0.677
sub-23677	congruent	1	0.354
sub-23677	congruent	0	0.246
sub-23677	congruent	1	0.408
sub-23677	incongruent	0	0.411
sub-23677	congruent	1	0.514
sub-23677	incongruent	1	0.516
sub-23677	congruent	1	0.361
sub-23677	congruent	1	0.328
sub-23677	incongruent	1	0.498
sub-23677	congruent	1	0.552
sub-23677	incongruent	0	0.344
sub-23677	incongruent	1	0.411
sub-23677	congruent	1	0.499
sub-23677	congruent	1	0.052
sub-23677	incongruent	1	0.225
sub-23677	congruent	0	0.227
sub-23677	congruent	0	0.243
sub-23677	incongruent	0	0.337
sub-23677	congruent	0	0.219
sub-23677	incongruent	1	0.484
sub-23677	incongruent	0	0.329
sub-23677	incongruent	0	0.308
sub-23677	congruent	1	0.263
sub-23677	incongruent	1	0.480
sub-23677	incongruent	0	0.365
sub-23677	incongruent	1	0.554
sub-23677	congruent	1	0.215
sub-23677	congruent	1	0.250
sub-23677	incongruent	0	0.267
sub-23677	incongruent	0	0.325
sub-23677	incongruent	1	0.526
sub-23677	congruent	1	0.266
sub-23677	congruent	0	0.189
sub-23677	incongruent	1	0.470
sub-23677	congruent	1	0.217
sub-23677	incongruent	0	0.323
sub-23677	incongruent	1	0.365
sub-23677	congruent	1	0.236
sub-23677	incongruent	1	0.397
sub-23677	congruent	1	0.177
sub-23677	incongruent	0	0.147
sub-23677	congruent	1	0.205
sub-23677	incongruent	1	0.674
sub-23677	congruent	1	0.400
sub-23677	congruent	1	0.033
sub-23677	incongruent	1	0.242
sub-23677	incongruent	0	0.293
sub-23677	incongruent	0	0.232
sub-23677	incongruent	1	0.198
sub-23677	congruent	0	0.213
sub-23677	incongruent	1	0.255
sub-23677	congruent	0	0.197
sub-23677	congruent	0	0.227
sub-23677	incongruent	1	0.514
sub-23677	incongruent	1	0.441
sub-23677	incongruent	1	0.470
sub-23677	incongruent	0	0.310
sub-23677	congruent	1	0.390
sub-23677	incongruent	0	0.189
sub-23677	congruent	1	0.210
sub-23677	congruent	1	0.303
sub-23677	incongruent	1	0.185
sub-23677	incongruent	0	0.271
sub-23677	congruent	1	0.518
sub-23677	congruent	1	0.243
sub-23677	congruent	1	0.296
sub-23677	incongruent	0	0.211
sub-23677	incongruent	1	0.838
sub-23677	congruent	1	0.391
sub-23677	congruent	1	0.364
sub-23677	congruent	1	0.319
sub-23677	incongruent	0	0.172
sub-23677	incongruent	1	0.532
sub-23677	congruent	1	0.342
sub-23677	congruent	0	0.187
sub-23677	congruent	1	0.224
sub-23677	incongruent	1	0.449
sub-23677	congruent	1	0.364
sub-23677	incongruent	0	0.318
sub-23677	incongruent	0	0.224
sub-23677	congruent	0	0.167
sub-23677	congruent	0	0.218
sub-23677	congruent	1	0.288
sub-23677	congruent	1	0.310
sub-23677	congruent	1	0.328
sub-23677	congruent	0	0.177
sub-23677	incongruent	1	0.292
sub-23677	congruent	1	0.307
sub-23677	congruent	1	0.232
sub-23677	incongruent	1	0.404
sub-23677	incongruent	0	0.234
sub-23677	incongruent	0	0.282
sub-23677	incongruent	0	0.205
sub-23677	congruent	0	0.202
sub-23677	incongruent	1	0.463
sub-23677	incongruent	1	0.494
sub-23677	incongruent	1	0.416
sub-23677	incongruent	0	0.254
sub-23677	congruent	1	0.322
sub-23677	congruent	0	0.221
sub-23677	incongruent	1	0.384
sub-23677	congruent	0	0.205
sub-23677	incongruent	1	0.447
sub-23677	congruent	1	0.329
sub-23677	congruent	0	0.252
sub-23677	incongruent	1	0.416
sub-23677	incongruent	0	0.291
sub-23677	incongruent	1	0.373
sub-23677	incongruent	0	0.353
sub-23677	congruent	1	0.365
sub-23677	congruent	0	0.057
sub-23677	incongruent	0	0.309
sub-23677	congruent	1	0.329
sub-23677	incongruent	1	0.953
sub-23677	congruent	1	0.379
sub-23677	congruent	1	0.369
sub-23677	incongruent	1	0.448
sub-23677	incongruent	1	0.490
sub-23677	congruent	1	0.273
sub-23677	incongruent	1	0.566
sub-23677	incongruent	1	0.482
sub-23677	incongruent	1	0.431
sub-23677	incongruent	1	0.452
sub-23677	incongruent	0	0.296
sub-23677	congruent	1	0.343
sub-23677	congruent	1	0.383
sub-23677	incongruent	0	0.317
sub-23677	incongruent	1	0.416
sub-23677	congruent	1	0.358
sub-23677	congruent	1	0.354
sub-23677	incongruent	1	0.497
sub-23677	congruent	1	0.307
sub-23677	incongruent	1	0.365
sub-23677	congruent	1	0.363
sub-23677	incongruent	0	0.248
sub-23677	incongruent	0	0.237
sub-23677	incongruent	1	0.481
sub-23677	incongruent	0	0.340
sub-23677	incongruent	1	0.547
sub-23677	incongruent	1	0.410
sub-23677	incongruent	1	0.441
sub-23677	congruent	1	0.430
sub-23677	congruent	1	0.325
sub-23677	congruent	0	0.462
sub-23677	congruent	1	0.404
sub-23677	congruent	1	0.368
sub-23677	congruent	1	0.320
sub-23677	congruent	1	0.433
sub-23677	incongruent	0	0.387
sub-23677	congruent	1	0.355
sub-23677	congruent	1	0.233
sub-23677	congruent	1	0.391
sub-23677	incongruent	1	0.500
sub-23677	incongruent	1	0.733
sub-23677	incongruent	1	0.481
sub-23677	congruent	1	0.340
sub-23677	incongruent	1	0.360
sub-23677	congruent	1	0.187
sub-23677	incongruent	0	0.460
sub-23677	congruent	1	0.409
sub-23677	incongruent	1	0.504
sub-23677	congruent	1	0.359
sub-23677	congruent	1	0.275
sub-23677	congruent	1	0.316
sub-23677	congruent	1	0.203
sub-23677	congruent	1	0.282
sub-23677	congruent	0	0.198
sub-23677	incongruent	0	0.409
sub-23677	incongruent	0	0.302
sub-23677	congruent	1	0.243
sub-23677	congruent	1	0.329
sub-23677	incongruent	1	0.277
sub-23677	incongruent	1	0.469
