participant_id	trial_type	stop_signal_delay	go_reaction_time	correct_go	successful_stop
sub-24254	Stop	0.750	0.000	0	1
sub-24254	Go	n/a	0.000	0	n/a
sub-24254	Go	n/a	0.690	1	n/a
sub-24254	Go	n/a	0.554	1	n/a
sub-24254	Stop	0.700	0.000	0	0
sub-24254	Go	n/a	0.723	1	n/a
sub-24254	Stop	0.750	0.000	0	1
sub-24254	Go	n/a	0.652	1	n/a
sub-24254	Go	n/a	0.614	1	n/a
sub-24254	Stop	0.700	0.000	0	1
sub-24254	Go	n/a	0.482	1	n/a
sub-24254	Stop	0.650	0.000	0	0
sub-24254	Go	n/a	0.766	1	n/a
sub-24254	Go	n/a	0.000	0	n/a
sub-24254	Stop	0.700	0.000	0	1
sub-24254	Go	n/a	0.566	1	n/a
sub-24254	Go	n/a	0.584	1	n/a
sub-24254	Go	n/a	0.955	1	n/a
sub-24254	Go	n/a	0.000	0	n/a
sub-24254	Go	n/a	0.741	1	n/a
sub-24254	Go	n/a	0.610	1	n/a
sub-24254	Stop	0.750	0.000	0	0
sub-24254	Go	n/a	0.613	1	n/a
sub-24254	Go	n/a	0.838	1	n/a
sub-24254	Stop	0.800	0.000	0	1
sub-24254	Go	n/a	0.690	1	n/a
sub-24254	Stop	0.750	0.000	0	1
sub-24254	Go	n/a	0.662	1	n/a
sub-24254	Go	n/a	0.903	1	n/a
sub-24254	Stop	0.700	0.000	0	1
sub-24254	Go	n/a	0.852	1	n/a
sub-24254	Go	n/a	0.763	1	n/a
sub-24254	Stop	0.650	0.000	0	1
sub-24254	Go	n/a	0.652	1	n/a
sub-24254	Go	n/a	0.000	0	n/a
sub-24254	Go	n/a	0.756	1	n/a
sub-24254	Stop	0.600	0.000	0	1
sub-24254	Go	n/a	0.000	0	n/a
sub-24254	Go	n/a	0.000	0	n/a
sub-24254	Go	n/a	0.842	1	n/a
sub-24254	Go	n/a	0.739	1	n/a
sub-24254	Go	n/a	0.666	1	n/a
sub-24254	Go	n/a	0.749	1	n/a
sub-24254	Go	n/a	0.743	1	n/a
sub-24254	Go	n/a	0.940	1	n/a
sub-24254	Go	n/a	0.979	1	n/a
sub-24254	Go	n/a	0.589	1	n/a
sub-24254	Go	n/a	0.613	1	n/a
sub-24254	Go	n/a	0.539	1	n/a
sub-24254	Go	n/a	0.590	1	n/a
sub-24254	Go	n/a	0.552	1	n/a
sub-24254	Go	n/a	0.673	1	n/a
sub-24254	Go	n/a	0.646	1	n/a
sub-24254	Go	n/a	0.799	1	n/a
sub-24254	Go	n/a	0.775	1	n/a
sub-24254	Stop	0.550	0.000	0	0
sub-24254	Stop	0.600	0.000	0	1
sub-24254	Go	n/a	0.793	1	n/a
sub-24254	Go	n/a	0.922	1	n/a
sub-24254	Go	n/a	0.865	1	n/a
sub-24254	Stop	0.550	0.000	0	0
sub-24254	Stop	0.600	0.000	0	1
sub-24254	Go	n/a	0.819	1	n/a
sub-24254	Stop	0.550	0.000	0	0
sub-24254	Go	n/a	0.794	1	n/a
sub-24254	Go	n/a	0.719	1	n/a
sub-24254	Go	n/a	0.544	1	n/a
sub-24254	Go	n/a	0.893	1	n/a
sub-24254	Stop	0.600	0.000	0	1
sub-24254	Go	n/a	0.840	1	n/a
sub-24254	Go	n/a	0.795	1	n/a
sub-24254	Go	n/a	0.810	1	n/a
sub-24254	Go	n/a	0.629	1	n/a
sub-24254	Stop	0.550	0.447	1	0
sub-24254	Go	n/a	0.780	1	n/a
sub-24254	Go	n/a	0.435	1	n/a
sub-24254	Stop	0.600	0.000	0	0
sub-24254	Stop	0.650	0.000	0	1
sub-24254	Go	n/a	0.000	0	n/a
sub-24254	Go	n/a	0.458	1	n/a
sub-24254	Go	n/a	0.533	1	n/a
sub-24254	Go	n/a	0.521	1	n/a
sub-24254	Go	n/a	0.000	0	n/a
sub-24254	Stop	0.600	0.000	0	0
sub-24254	Go	n/a	0.640	1	n/a
sub-24254	Go	n/a	0.519	1	n/a
sub-24254	Go	n/a	0.640	1	n/a
sub-24254	Go	n/a	0.499	1	n/a
sub-24254	Go	n/a	0.879	1	n/a
sub-24254	Stop	0.650	0.000	0	0
sub-24254	Stop	0.700	0.000	0	1
sub-24254	Stop	0.650	0.000	0	1
sub-24254	Stop	0.600	0.000	0	1
sub-24254	Stop	0.550	0.000	0	1
sub-24254	Go	n/a	0.968	1	n/a
sub-24254	Go	n/a	0.899	1	n/a
sub-24254	Go	n/a	0.000	0	n/a
sub-24254	Go	n/a	0.448	1	n/a
sub-24254	Go	n/a	0.653	1	n/a
sub-24254	Go	n/a	0.538	1	n/a
sub-24254	Go	n/a	0.399	1	n/a
sub-24254	Go	n/a	0.000	0	n/a
sub-24254	Stop	0.500	0.000	0	0
sub-24254	Go	n/a	0.742	0	n/a
sub-24254	Stop	0.750	0.000	0	0
sub-24254	Go	n/a	0.264	1	n/a
sub-24254	Go	n/a	0.324	1	n/a
sub-24254	Stop	0.800	0.000	0	0
sub-24254	Go	n/a	0.466	1	n/a
sub-24254	Stop	0.850	0.000	0	1
sub-24254	Stop	0.800	0.000	0	0
sub-24254	Go	n/a	0.540	1	n/a
sub-24254	Stop	0.850	0.000	0	1
sub-24254	Go	n/a	0.762	1	n/a
sub-24254	Go	n/a	0.584	1	n/a
sub-24254	Go	n/a	0.548	1	n/a
sub-24254	Go	n/a	0.710	1	n/a
sub-24254	Stop	0.800	0.000	0	1
sub-24254	Go	n/a	0.342	1	n/a
sub-24254	Go	n/a	0.359	1	n/a
sub-24254	Go	n/a	0.343	1	n/a
sub-24254	Go	n/a	0.313	1	n/a
sub-24254	Stop	0.750	0.000	0	0
sub-24254	Stop	0.800	0.000	0	1
sub-24254	Go	n/a	0.312	1	n/a
sub-24254	Go	n/a	0.439	1	n/a
sub-24254	Go	n/a	0.394	1	n/a
sub-24254	Go	n/a	0.373	1	n/a
sub-24254	Go	n/a	0.335	1	n/a
sub-24254	Stop	0.750	0.000	0	0
sub-24254	Go	n/a	0.000	0	n/a
sub-24254	Go	n/a	0.594	1	n/a
sub-24254	Go	n/a	0.389	1	n/a
sub-24254	Stop	0.800	0.000	0	1
sub-24254	Stop	0.750	0.000	0	1
sub-24254	Go	n/a	0.665	1	n/a
sub-24254	Go	n/a	0.478	1	n/a
sub-24254	Go	n/a	0.319	1	n/a
sub-24254	Go	n/a	0.398	1	n/a
sub-24254	Stop	0.700	0.000	0	1
sub-24254	Go	n/a	0.483	1	n/a
sub-24254	Go	n/a	0.486	1	n/a
sub-24254	Go	n/a	0.279	0	n/a
sub-24254	Go	n/a	0.425	1	n/a
sub-24254	Go	n/a	0.409	1	n/a
sub-24254	Go	n/a	0.328	1	n/a
sub-24254	Go	n/a	0.301	1	n/a
sub-24254	Go	n/a	0.217	0	n/a
sub-24254	Go	n/a	0.501	1	n/a
sub-24254	Go	n/a	0.379	1	n/a
sub-24254	Stop	0.650	0.194	0	0
sub-24254	Go	n/a	0.480	1	n/a
sub-24254	Go	n/a	0.420	1	n/a
sub-24254	Go	n/a	0.271	1	n/a
sub-24254	Go	n/a	0.319	1	n/a
sub-24254	Go	n/a	0.472	1	n/a
sub-24254	Stop	0.700	0.000	0	0
sub-24254	Go	n/a	0.442	1	n/a
sub-24254	Stop	0.750	0.000	0	0
sub-24254	Go	n/a	0.538	1	n/a
sub-24254	Go	n/a	0.429	1	n/a
sub-24254	Go	n/a	0.485	1	n/a
sub-24254	Go	n/a	0.528	1	n/a
sub-24254	Stop	0.800	0.000	0	0
sub-24254	Go	n/a	0.791	1	n/a
sub-24254	Stop	0.850	0.000	0	0
sub-24254	Go	n/a	0.793	1	n/a
sub-24254	Stop	0.900	0.000	0	1
sub-24254	Stop	0.850	0.000	0	1
sub-24254	Go	n/a	0.667	1	n/a
sub-24254	Go	n/a	0.685	1	n/a
sub-24254	Go	n/a	0.000	0	n/a
sub-24254	Go	n/a	0.000	0	n/a
sub-24254	Go	n/a	0.000	0	n/a
sub-24254	Go	n/a	0.583	1	n/a
sub-24254	Go	n/a	0.886	1	n/a
sub-24254	Go	n/a	0.000	0	n/a
sub-24254	Stop	0.800	0.000	0	1
sub-24254	Go	n/a	0.000	0	n/a
sub-24254	Stop	0.750	0.000	0	0
sub-24254	Go	n/a	0.691	1	n/a
sub-24254	Go	n/a	0.000	0	n/a
sub-24254	Go	n/a	0.000	0	n/a
sub-24254	Go	n/a	0.491	1	n/a
sub-24254	Go	n/a	0.000	0	n/a
sub-24254	Go	n/a	0.493	1	n/a
sub-24254	Go	n/a	0.285	1	n/a
sub-24254	Stop	0.800	0.000	0	0
sub-24254	Go	n/a	0.000	0	n/a
sub-24254	Go	n/a	0.871	0	n/a
sub-24254	Go	n/a	0.467	1	n/a
sub-24254	Go	n/a	0.670	1	n/a
sub-24254	Go	n/a	0.589	1	n/a
sub-24254	Go	n/a	0.304	1	n/a
sub-24254	Go	n/a	0.425	1	n/a
sub-24254	Go	n/a	0.515	1	n/a
sub-24254	Go	n/a	0.500	1	n/a
sub-24254	Go	n/a	0.620	1	n/a
sub-24254	Go	n/a	0.634	1	n/a
sub-24254	Go	n/a	0.884	1	n/a
sub-24254	Go	n/a	0.588	1	n/a
sub-24254	Stop	0.750	0.000	0	0
sub-24254	Go	n/a	0.771	1	n/a
sub-24254	Go	n/a	0.749	1	n/a
sub-24254	Go	n/a	0.679	1	n/a
sub-24254	Go	n/a	0.436	1	n/a
sub-24254	Go	n/a	0.524	1	n/a
sub-24254	Go	n/a	0.463	1	n/a
sub-24254	Go	n/a	0.537	1	n/a
sub-24254	Stop	0.800	0.000	0	1
sub-24254	Go	n/a	0.567	1	n/a
sub-24254	Stop	0.750	0.000	0	1
sub-24254	Go	n/a	0.511	1	n/a
sub-24254	Stop	0.700	0.000	0	1
sub-24254	Stop	0.650	0.000	0	1
sub-24254	Go	n/a	0.650	1	n/a
sub-24254	Go	n/a	0.911	1	n/a
sub-24254	Go	n/a	0.764	1	n/a
sub-24254	Go	n/a	0.868	1	n/a
sub-24254	Go	n/a	0.855	1	n/a
sub-24254	Go	n/a	0.802	1	n/a
sub-24254	Stop	0.600	0.000	0	1
sub-24254	Stop	0.550	0.408	0	0
sub-24254	Go	n/a	0.472	1	n/a
sub-24254	Go	n/a	0.584	1	n/a
sub-24254	Stop	0.600	0.000	0	0
sub-24254	Go	n/a	0.654	0	n/a
sub-24254	Go	n/a	0.000	0	n/a
sub-24254	Go	n/a	0.000	0	n/a
sub-24254	Go	n/a	0.482	1	n/a
sub-24254	Go	n/a	0.000	0	n/a
sub-24254	Go	n/a	0.000	0	n/a
sub-24254	Go	n/a	0.814	1	n/a
sub-24254	Go	n/a	0.689	1	n/a
sub-24254	Stop	0.650	0.000	0	1
sub-24254	Go	n/a	0.561	1	n/a
sub-24254	Go	n/a	0.681	1	n/a
sub-24254	Go	n/a	0.729	1	n/a
sub-24254	Stop	0.600	0.000	0	0
sub-24254	Stop	0.650	0.000	0	0
sub-24254	Go	n/a	0.593	1	n/a
sub-24254	Go	n/a	0.644	1	n/a
sub-24254	Go	n/a	0.499	1	n/a
sub-24254	Go	n/a	0.541	0	n/a
sub-24254	Go	n/a	0.403	1	n/a
sub-24254	Stop	0.700	0.000	0	1
sub-24254	Go	n/a	0.586	1	n/a
sub-24254	Go	n/a	0.489	1	n/a
sub-24254	Stop	0.650	0.000	0	1
sub-24254	Go	n/a	0.426	1	n/a
sub-24254	Go	n/a	0.514	1	n/a
sub-24254	Go	n/a	0.890	1	n/a
sub-24254	Stop	0.600	0.000	0	1
sub-24254	Stop	0.550	0.000	0	1
sub-24254	Stop	0.500	0.000	0	0
sub-24254	Go	n/a	0.807	1	n/a
sub-24254	Go	n/a	0.505	1	n/a
sub-24254	Go	n/a	0.590	1	n/a
sub-24254	Go	n/a	0.450	1	n/a
sub-24254	Go	n/a	0.352	1	n/a
sub-24254	Go	n/a	0.546	1	n/a
sub-24254	Go	n/a	0.650	1	n/a
sub-24254	Go	n/a	0.428	0	n/a
sub-24254	Go	n/a	0.413	1	n/a
sub-24254	Go	n/a	0.350	0	n/a
sub-24254	Go	n/a	0.458	1	n/a
sub-24254	Go	n/a	0.341	1	n/a
sub-24254	Stop	0.550	0.000	0	0
sub-24254	Go	n/a	0.702	1	n/a
sub-24254	Stop	0.600	0.000	0	0
sub-24254	Go	n/a	0.484	1	n/a
sub-24254	Go	n/a	0.322	0	n/a
sub-24254	Stop	0.650	0.260	0	0
sub-24254	Go	n/a	0.845	1	n/a
sub-24254	Go	n/a	0.553	0	n/a
sub-24254	Stop	0.700	0.000	0	1
sub-24254	Stop	0.650	0.000	0	1
sub-24254	Stop	0.600	0.000	0	1
sub-24254	Go	n/a	0.875	1	n/a
sub-24254	Go	n/a	0.447	1	n/a
sub-24254	Go	n/a	0.503	1	n/a
sub-24254	Go	n/a	0.382	1	n/a
sub-24254	Go	n/a	0.578	1	n/a
sub-24254	Stop	0.750	0.000	0	0
sub-24254	Go	n/a	0.717	1	n/a
sub-24254	Stop	0.800	0.000	0	1
sub-24254	Go	n/a	0.504	1	n/a
sub-24254	Go	n/a	0.690	1	n/a
sub-24254	Go	n/a	0.544	1	n/a
sub-24254	Stop	0.750	0.000	0	1
sub-24254	Go	n/a	0.481	1	n/a
sub-24254	Go	n/a	0.520	1	n/a
sub-24254	Go	n/a	0.446	1	n/a
sub-24254	Stop	0.700	0.000	0	0
sub-24254	Go	n/a	0.436	1	n/a
sub-24254	Go	n/a	0.364	1	n/a
sub-24254	Go	n/a	0.448	1	n/a
sub-24254	Go	n/a	0.836	1	n/a
sub-24254	Stop	0.750	0.000	0	0
sub-24254	Go	n/a	0.632	1	n/a
sub-24254	Stop	0.800	0.000	0	1
sub-24254	Go	n/a	0.665	0	n/a
sub-24254	Go	n/a	0.578	1	n/a
sub-24254	Go	n/a	0.559	1	n/a
sub-24254	Go	n/a	0.757	1	n/a
sub-24254	Go	n/a	0.000	0	n/a
sub-24254	Go	n/a	0.000	0	n/a
sub-24254	Stop	0.750	0.000	0	1
sub-24254	Go	n/a	0.560	1	n/a
sub-24254	Go	n/a	0.581	1	n/a
sub-24254	Stop	0.700	0.000	0	1
sub-24254	Go	n/a	0.462	1	n/a
sub-24254	Go	n/a	0.455	1	n/a
sub-24254	Go	n/a	0.465	1	n/a
sub-24254	Go	n/a	0.677	1	n/a
sub-24254	Go	n/a	0.381	1	n/a
sub-24254	Go	n/a	0.435	1	n/a
sub-24254	Go	n/a	0.315	0	n/a
sub-24254	Go	n/a	0.000	0	n/a
sub-24254	Go	n/a	0.434	1	n/a
sub-24254	Go	n/a	0.428	1	n/a
sub-24254	Go	n/a	0.457	1	n/a
sub-24254	Go	n/a	0.424	1	n/a
sub-24254	Go	n/a	0.450	1	n/a
sub-24254	Go	n/a	0.654	1	n/a
sub-24254	Go	n/a	0.570	1	n/a
sub-24254	Go	n/a	0.899	1	n/a
sub-24254	Go	n/a	0.539	1	n/a
sub-24254	Go	n/a	0.766	0	n/a
sub-24254	Go	n/a	0.000	0	n/a
sub-24254	Go	n/a	0.000	0	n/a
sub-24254	Stop	0.650	0.000	0	0
sub-24254	Stop	0.700	0.000	0	1
sub-24254	Stop	0.650	0.000	0	1
sub-24254	Go	n/a	0.000	0	n/a
sub-24254	Go	n/a	0.000	0	n/a
sub-24254	Go	n/a	0.000	0	n/a
sub-24254	Stop	0.600	0.000	0	0
sub-24254	Go	n/a	0.000	0	n/a
sub-24254	Go	n/a	0.642	1	n/a
sub-24254	Go	n/a	0.000	0	n/a
sub-24254	Go	n/a	0.430	1	n/a
sub-24254	Go	n/a	0.394	1	n/a
sub-24254	Stop	0.650	0.000	0	1
sub-24254	Go	n/a	0.885	1	n/a
sub-24254	Stop	0.600	0.000	0	0
sub-24254	Go	n/a	0.851	1	n/a
sub-24254	Go	n/a	0.596	1	n/a
sub-24254	Stop	0.650	0.000	0	1
sub-24254	Go	n/a	0.670	1	n/a
sub-24254	Stop	0.600	0.000	0	0
sub-24254	Go	n/a	0.504	1	n/a
sub-24254	Go	n/a	0.566	1	n/a
sub-24254	Stop	0.650	0.000	0	0
sub-24254	Go	n/a	0.401	1	n/a
sub-24254	Go	n/a	0.803	1	n/a
sub-24254	Go	n/a	0.821	0	n/a
sub-24254	Go	n/a	0.463	1	n/a
sub-24254	Stop	0.700	0.000	0	0
sub-24254	Stop	0.750	0.000	0	1
sub-24254	Go	n/a	0.444	1	n/a
sub-24254	Stop	0.700	0.000	0	0
sub-24254	Go	n/a	0.000	0	n/a
sub-24254	Go	n/a	0.514	1	n/a
sub-24254	Go	n/a	0.478	1	n/a
sub-24254	Stop	0.750	0.000	0	0
sub-24254	Go	n/a	0.599	1	n/a
sub-24254	Stop	0.800	0.000	0	1
sub-24254	Go	n/a	0.440	1	n/a
sub-24254	Go	n/a	0.382	1	n/a
sub-24254	Go	n/a	0.402	1	n/a
sub-24254	Go	n/a	0.448	1	n/a
sub-24254	Go	n/a	0.333	1	n/a
sub-24254	Go	n/a	0.410	1	n/a
sub-24254	Go	n/a	0.572	1	n/a
sub-24254	Go	n/a	0.425	1	n/a
sub-24254	Go	n/a	0.476	1	n/a
sub-24254	Go	n/a	0.581	1	n/a
sub-24254	Go	n/a	0.540	1	n/a
sub-24254	Go	n/a	0.507	1	n/a
sub-24254	Stop	0.750	0.000	0	0
sub-24254	Go	n/a	0.000	0	n/a
sub-24254	Go	n/a	0.706	1	n/a
sub-24254	Stop	0.800	0.000	0	1
sub-24254	Go	n/a	0.533	1	n/a
sub-24254	Go	n/a	0.525	1	n/a
sub-24254	Stop	0.750	0.000	0	0
sub-24254	Go	n/a	0.447	1	n/a
sub-24254	Stop	0.800	0.000	0	1
sub-24254	Go	n/a	0.688	1	n/a
sub-24254	Stop	0.750	0.000	0	0
sub-24254	Stop	0.800	0.000	0	1
sub-24254	Stop	0.750	0.000	0	1
sub-24254	Stop	0.700	0.000	0	0
sub-24254	Go	n/a	0.789	1	n/a
sub-24254	Go	n/a	0.000	0	n/a
sub-24254	Go	n/a	0.959	1	n/a
sub-24254	Go	n/a	0.000	0	n/a
sub-24254	Stop	0.750	0.000	0	1
sub-24254	Go	n/a	0.436	1	n/a
sub-24254	Go	n/a	0.340	1	n/a
sub-24254	Stop	0.700	0.000	0	0
sub-24254	Go	n/a	0.000	0	n/a
sub-24254	Go	n/a	0.000	0	n/a
sub-24254	Go	n/a	0.000	0	n/a
sub-24254	Go	n/a	0.000	0	n/a
sub-24254	Go	n/a	0.800	0	n/a
sub-24254	Go	n/a	0.000	0	n/a
sub-24254	Stop	0.750	0.000	0	1
sub-24254	Go	n/a	0.694	1	n/a
sub-24254	Go	n/a	0.000	0	n/a
sub-24254	Go	n/a	0.556	1	n/a
sub-24254	Go	n/a	0.000	0	n/a
sub-24254	Go	n/a	0.000	0	n/a
sub-24254	Stop	0.700	0.000	0	1
sub-24254	Stop	0.650	0.000	0	0
sub-24254	Stop	0.700	0.000	0	0
sub-24254	Go	n/a	0.000	0	n/a
sub-24254	Go	n/a	0.000	0	n/a
sub-24254	Go	n/a	0.595	1	n/a
sub-24254	Go	n/a	0.918	1	n/a
sub-24254	Go	n/a	0.545	1	n/a
sub-24254	Stop	0.750	0.000	0	1
sub-24254	Go	n/a	0.903	1	n/a
sub-24254	Stop	0.700	0.000	0	0
sub-24254	Go	n/a	0.000	0	n/a
sub-24254	Go	n/a	0.428	1	n/a
sub-24254	Go	n/a	0.659	1	n/a
sub-24254	Go	n/a	0.000	0	n/a
sub-24254	Stop	0.750	0.000	0	1
sub-24254	Stop	0.700	0.000	0	1
sub-24254	Go	n/a	0.000	0	n/a
sub-24254	Go	n/a	0.908	1	n/a
sub-24254	Go	n/a	0.505	1	n/a
sub-24254	Go	n/a	0.514	1	n/a
sub-24254	Go	n/a	0.695	1	n/a
sub-24254	Go	n/a	0.998	1	n/a
sub-24254	Go	n/a	0.818	1	n/a
sub-24254	Go	n/a	0.000	0	n/a
sub-24254	Go	n/a	0.614	1	n/a
sub-24254	Go	n/a	0.492	1	n/a
sub-24254	Go	n/a	0.641	1	n/a
sub-24254	Go	n/a	0.000	0	n/a
sub-24254	Go	n/a	0.673	1	n/a
sub-24254	Stop	0.650	0.000	0	1
sub-24254	Go	n/a	0.822	1	n/a
sub-24254	Go	n/a	0.747	1	n/a
sub-24254	Stop	0.600	0.000	0	0
sub-24254	Go	n/a	0.820	0	n/a
sub-24254	Stop	0.650	0.000	0	0
sub-24254	Go	n/a	0.000	0	n/a
sub-24254	Go	n/a	0.556	1	n/a
sub-24254	Go	n/a	0.746	1	n/a
sub-24254	Go	n/a	0.555	1	n/a
sub-24254	Go	n/a	0.674	1	n/a
sub-24254	Stop	0.700	0.000	0	0
