onset	duration	startTime	stopTime	eventIdentifier	trial_type	trial_number	block_number	is_practice	fixation_color	cue_side	aoi_correct	aoi_incorrect
0.145	6.0	943090	949123	ShowFixation	VGS	1	1	True	lime	180	[405 885 405 675]	[1035 1515  405  675]
6.178	0.2	949123	949362	BlankScreen	VGS	1	1	True	lime	180	[405 885 405 675]	[1035 1515  405  675]
6.417	1.0	949362	950403	ELCue	VGS	1	1	True	lime	180	[405 885 405 675]	[1035 1515  405  675]
7.866	6.0	950811	957448	ShowFixation	ANTI	2	1	True	red	180	[1035 1515  405  675]	[405 885 405 675]
14.503	0.2	957448	957687	BlankScreen	ANTI	2	1	True	red	180	[1035 1515  405  675]	[405 885 405 675]
14.742	1.0	957687	958728	ELCue	ANTI	2	1	True	red	180	[1035 1515  405  675]	[405 885 405 675]
16.17	2.0	959115	961773	ShowFixation	VGS	3	1	True	lime	40	[ 90 570 405 675]	[1350 1830  405  675]
18.828	0.2	961773	962008	BlankScreen	VGS	3	1	True	lime	40	[ 90 570 405 675]	[1350 1830  405  675]
19.063	1.0	962008	963049	ELCue	VGS	3	1	True	lime	40	[ 90 570 405 675]	[1350 1830  405  675]
20.511	6.0	963456	970093	ShowFixation	VGS	4	1	True	lime	460	[1035 1515  405  675]	[405 885 405 675]
27.148	0.2	970093	970333	BlankScreen	VGS	4	1	True	lime	460	[1035 1515  405  675]	[405 885 405 675]
27.388	1.0	970333	971373	ELCue	VGS	4	1	True	lime	460	[1035 1515  405  675]	[405 885 405 675]
28.829	6.0	971774	978418	ShowFixation	ANTI	5	1	True	red	40	[1350 1830  405  675]	[ 90 570 405 675]
35.473	0.2	978418	978658	BlankScreen	ANTI	5	1	True	red	40	[1350 1830  405  675]	[ 90 570 405 675]
35.713	1.0	978658	979698	ELCue	ANTI	5	1	True	red	40	[1350 1830  405  675]	[ 90 570 405 675]
37.16	2.0	980105	982743	ShowFixation	ANTI	6	1	True	red	180	[1035 1515  405  675]	[405 885 405 675]
39.798	0.2	982743	982979	BlankScreen	ANTI	6	1	True	red	180	[1035 1515  405  675]	[405 885 405 675]
40.034	1.0	982979	984019	ELCue	ANTI	6	1	True	red	180	[1035 1515  405  675]	[405 885 405 675]
41.481	2.0	984426	987047	ShowFixation	VGS	7	1	True	lime	600	[1350 1830  405  675]	[ 90 570 405 675]
44.102	0.2	987047	987266	BlankScreen	VGS	7	1	True	lime	600	[1350 1830  405  675]	[ 90 570 405 675]
44.321	1.0	987266	988290	ELCue	VGS	7	1	True	lime	600	[1350 1830  405  675]	[ 90 570 405 675]
45.749	6.0	988694	995335	ShowFixation	VGS	8	1	True	lime	40	[ 90 570 405 675]	[1350 1830  405  675]
52.39	0.2	995335	995574	BlankScreen	VGS	8	1	True	lime	40	[ 90 570 405 675]	[1350 1830  405  675]
52.629	1.0	995574	996615	ELCue	VGS	8	1	True	lime	40	[ 90 570 405 675]	[1350 1830  405  675]
54.075	2.0	997020	999660	ShowFixation	VGS	9	1	True	lime	460	[1035 1515  405  675]	[405 885 405 675]
56.715	0.2	999660	999895	BlankScreen	VGS	9	1	True	lime	460	[1035 1515  405  675]	[405 885 405 675]
56.95	1.0	999895	1000936	ELCue	VGS	9	1	True	lime	460	[1035 1515  405  675]	[405 885 405 675]
58.395	6.0	1001340	1007981	ShowFixation	ANTI	10	1	True	red	600	[ 90 570 405 675]	[1350 1830  405  675]
65.036	0.2	1007981	1008220	BlankScreen	ANTI	10	1	True	red	600	[ 90 570 405 675]	[1350 1830  405  675]
65.275	1.0	1008220	1009261	ELCue	ANTI	10	1	True	red	600	[ 90 570 405 675]	[1350 1830  405  675]
66.721	2.0	1009666	1012289	ShowFixation	ANTI	11	1	True	red	600	[ 90 570 405 675]	[1350 1830  405  675]
69.344	0.2	1012289	1012508	BlankScreen	ANTI	11	1	True	red	600	[ 90 570 405 675]	[1350 1830  405  675]
69.563	1.0	1012508	1013532	ELCue	ANTI	11	1	True	red	600	[ 90 570 405 675]	[1350 1830  405  675]
70.988	6.0	1013933	1020577	ShowFixation	VGS	12	1	True	lime	600	[1350 1830  405  675]	[ 90 570 405 675]
77.632	0.2	1020577	1020817	BlankScreen	VGS	12	1	True	lime	600	[1350 1830  405  675]	[ 90 570 405 675]
77.872	1.0	1020817	1021857	ELCue	VGS	12	1	True	lime	600	[1350 1830  405  675]	[ 90 570 405 675]
79.317	2.0	1022262	1024902	ShowFixation	VGS	13	1	True	lime	180	[405 885 405 675]	[1035 1515  405  675]
81.957	0.2	1024902	1025138	BlankScreen	VGS	13	1	True	lime	180	[405 885 405 675]	[1035 1515  405  675]
82.193	1.0	1025138	1026178	ELCue	VGS	13	1	True	lime	180	[405 885 405 675]	[1035 1515  405  675]
83.635	2.0	1026580	1029223	ShowFixation	ANTI	14	1	True	red	460	[405 885 405 675]	[1035 1515  405  675]
86.278	0.2	1029223	1029459	BlankScreen	ANTI	14	1	True	red	460	[405 885 405 675]	[1035 1515  405  675]
86.514	1.0	1029459	1030499	ELCue	ANTI	14	1	True	red	460	[405 885 405 675]	[1035 1515  405  675]
87.957	6.0	1030902	1037544	ShowFixation	ANTI	15	1	True	red	460	[405 885 405 675]	[1035 1515  405  675]
94.599	0.2	1037544	1037784	BlankScreen	ANTI	15	1	True	red	460	[405 885 405 675]	[1035 1515  405  675]
94.839	1.0	1037784	1038824	ELCue	ANTI	15	1	True	red	460	[405 885 405 675]	[1035 1515  405  675]
96.283	2.0	1039228	1041869	ShowFixation	ANTI	16	1	True	red	40	[1350 1830  405  675]	[ 90 570 405 675]
98.924	0.2	1041869	1042105	BlankScreen	ANTI	16	1	True	red	40	[1350 1830  405  675]	[ 90 570 405 675]
99.16	1.0	1042105	1043145	ELCue	ANTI	16	1	True	red	40	[1350 1830  405  675]	[ 90 570 405 675]
130.281	2.0	1073226	1075252	ShowFixation	ANTI	17	2	False	red	180	[1035 1515  405  675]	[405 885 405 675]
132.307	0.2	1075252	1075488	BlankScreen	ANTI	17	2	False	red	180	[1035 1515  405  675]	[405 885 405 675]
132.543	1.0	1075488	1076488	ELCue	ANTI	17	2	False	red	180	[1035 1515  405  675]	[405 885 405 675]
134.06	2.0	1077005	1079039	ShowFixation	VGS	18	2	False	lime	600	[1350 1830  405  675]	[ 90 570 405 675]
136.094	0.2	1079039	1079275	BlankScreen	VGS	18	2	False	lime	600	[1350 1830  405  675]	[ 90 570 405 675]
136.33	1.0	1079275	1080275	ELCue	VGS	18	2	False	lime	600	[1350 1830  405  675]	[ 90 570 405 675]
137.739	2.0	1080684	1082710	ShowFixation	ANTI	19	2	False	red	180	[1035 1515  405  675]	[405 885 405 675]
139.765	0.2	1082710	1082945	BlankScreen	ANTI	19	2	False	red	180	[1035 1515  405  675]	[405 885 405 675]
140.0	1.0	1082945	1083945	ELCue	ANTI	19	2	False	red	180	[1035 1515  405  675]	[405 885 405 675]
141.41	6.0	1084355	1090380	ShowFixation	ANTI	20	2	False	red	460	[405 885 405 675]	[1035 1515  405  675]
147.435	0.2	1090380	1090619	BlankScreen	ANTI	20	2	False	red	460	[405 885 405 675]	[1035 1515  405  675]
147.674	1.0	1090619	1091619	ELCue	ANTI	20	2	False	red	460	[405 885 405 675]	[1035 1515  405  675]
149.083	6.0	1092028	1098054	ShowFixation	VGS	21	2	False	lime	600	[1350 1830  405  675]	[ 90 570 405 675]
155.109	0.2	1098054	1098293	BlankScreen	VGS	21	2	False	lime	600	[1350 1830  405  675]	[ 90 570 405 675]
155.348	1.0	1098293	1099293	ELCue	VGS	21	2	False	lime	600	[1350 1830  405  675]	[ 90 570 405 675]
156.758	6.0	1099703	1105728	ShowFixation	ANTI	22	2	False	red	180	[1035 1515  405  675]	[405 885 405 675]
162.783	0.2	1105728	1105968	BlankScreen	ANTI	22	2	False	red	180	[1035 1515  405  675]	[405 885 405 675]
163.023	1.0	1105968	1106968	ELCue	ANTI	22	2	False	red	180	[1035 1515  405  675]	[405 885 405 675]
164.431	6.0	1107376	1113403	ShowFixation	VGS	23	2	False	lime	460	[1035 1515  405  675]	[405 885 405 675]
170.458	0.2	1113403	1113642	BlankScreen	VGS	23	2	False	lime	460	[1035 1515  405  675]	[405 885 405 675]
170.697	1.0	1113642	1114642	ELCue	VGS	23	2	False	lime	460	[1035 1515  405  675]	[405 885 405 675]
172.102	6.0	1115047	1121077	ShowFixation	ANTI	24	2	False	red	460	[405 885 405 675]	[1035 1515  405  675]
178.132	0.2	1121077	1121316	BlankScreen	ANTI	24	2	False	red	460	[405 885 405 675]	[1035 1515  405  675]
178.371	1.0	1121316	1122316	ELCue	ANTI	24	2	False	red	460	[405 885 405 675]	[1035 1515  405  675]
179.785	6.0	1122730	1128768	ShowFixation	ANTI	25	2	False	red	180	[1035 1515  405  675]	[405 885 405 675]
185.823	0.2	1128768	1129007	BlankScreen	ANTI	25	2	False	red	180	[1035 1515  405  675]	[405 885 405 675]
186.062	1.0	1129007	1130007	ELCue	ANTI	25	2	False	red	180	[1035 1515  405  675]	[405 885 405 675]
187.469	2.0	1130414	1132442	ShowFixation	VGS	26	2	False	lime	180	[405 885 405 675]	[1035 1515  405  675]
189.497	0.2	1132442	1132677	BlankScreen	VGS	26	2	False	lime	180	[405 885 405 675]	[1035 1515  405  675]
189.732	1.0	1132677	1133677	ELCue	VGS	26	2	False	lime	180	[405 885 405 675]	[1035 1515  405  675]
191.141	6.0	1134086	1140112	ShowFixation	VGS	27	2	False	lime	600	[1350 1830  405  675]	[ 90 570 405 675]
197.167	0.2	1140112	1140352	BlankScreen	VGS	27	2	False	lime	600	[1350 1830  405  675]	[ 90 570 405 675]
197.407	1.0	1140352	1141352	ELCue	VGS	27	2	False	lime	600	[1350 1830  405  675]	[ 90 570 405 675]
198.811	2.0	1141756	1143787	ShowFixation	VGS	28	2	False	lime	460	[1035 1515  405  675]	[405 885 405 675]
200.842	0.2	1143787	1144022	BlankScreen	VGS	28	2	False	lime	460	[1035 1515  405  675]	[405 885 405 675]
201.077	1.0	1144022	1145022	ELCue	VGS	28	2	False	lime	460	[1035 1515  405  675]	[405 885 405 675]
202.491	2.0	1145436	1147473	ShowFixation	ANTI	29	2	False	red	460	[405 885 405 675]	[1035 1515  405  675]
204.528	0.2	1147473	1147709	BlankScreen	ANTI	29	2	False	red	460	[405 885 405 675]	[1035 1515  405  675]
204.764	1.0	1147709	1148709	ELCue	ANTI	29	2	False	red	460	[405 885 405 675]	[1035 1515  405  675]
206.173	2.0	1149118	1151144	ShowFixation	ANTI	30	2	False	red	600	[ 90 570 405 675]	[1350 1830  405  675]
208.199	0.2	1151144	1151379	BlankScreen	ANTI	30	2	False	red	600	[ 90 570 405 675]	[1350 1830  405  675]
208.434	1.0	1151379	1152379	ELCue	ANTI	30	2	False	red	600	[ 90 570 405 675]	[1350 1830  405  675]
209.844	6.0	1152789	1158814	ShowFixation	VGS	31	2	False	lime	180	[405 885 405 675]	[1035 1515  405  675]
215.869	0.2	1158814	1159053	BlankScreen	VGS	31	2	False	lime	180	[405 885 405 675]	[1035 1515  405  675]
216.108	1.0	1159053	1160053	ELCue	VGS	31	2	False	lime	180	[405 885 405 675]	[1035 1515  405  675]
217.518	6.0	1160463	1166488	ShowFixation	VGS	32	2	False	lime	40	[ 90 570 405 675]	[1350 1830  405  675]
223.543	0.2	1166488	1166728	BlankScreen	VGS	32	2	False	lime	40	[ 90 570 405 675]	[1350 1830  405  675]
223.784	1.0	1166729	1167729	ELCue	VGS	32	2	False	lime	40	[ 90 570 405 675]	[1350 1830  405  675]
225.282	6.0	1168227	1174263	ShowFixation	ANTI	33	2	False	red	40	[1350 1830  405  675]	[ 90 570 405 675]
231.319	0.2	1174264	1174503	BlankScreen	ANTI	33	2	False	red	40	[1350 1830  405  675]	[ 90 570 405 675]
231.558	1.0	1174503	1175503	ELCue	ANTI	33	2	False	red	40	[1350 1830  405  675]	[ 90 570 405 675]
232.966	6.0	1175911	1181938	ShowFixation	VGS	34	2	False	lime	40	[ 90 570 405 675]	[1350 1830  405  675]
238.993	0.2	1181938	1182177	BlankScreen	VGS	34	2	False	lime	40	[ 90 570 405 675]	[1350 1830  405  675]
239.232	1.0	1182177	1183177	ELCue	VGS	34	2	False	lime	40	[ 90 570 405 675]	[1350 1830  405  675]
240.637	2.0	1183582	1185612	ShowFixation	VGS	35	2	False	lime	40	[ 90 570 405 675]	[1350 1830  405  675]
242.667	0.2	1185612	1185847	BlankScreen	VGS	35	2	False	lime	40	[ 90 570 405 675]	[1350 1830  405  675]
242.902	1.0	1185847	1186847	ELCue	VGS	35	2	False	lime	40	[ 90 570 405 675]	[1350 1830  405  675]
244.304	2.0	1187249	1189282	ShowFixation	VGS	36	2	False	lime	600	[1350 1830  405  675]	[ 90 570 405 675]
246.337	0.2	1189282	1189518	BlankScreen	VGS	36	2	False	lime	600	[1350 1830  405  675]	[ 90 570 405 675]
246.573	1.0	1189518	1190518	ELCue	VGS	36	2	False	lime	600	[1350 1830  405  675]	[ 90 570 405 675]
247.983	2.0	1190928	1192969	ShowFixation	VGS	37	2	False	lime	460	[1035 1515  405  675]	[405 885 405 675]
250.024	0.2	1192969	1193205	BlankScreen	VGS	37	2	False	lime	460	[1035 1515  405  675]	[405 885 405 675]
250.26	1.0	1193205	1194205	ELCue	VGS	37	2	False	lime	460	[1035 1515  405  675]	[405 885 405 675]
251.669	2.0	1194614	1196640	ShowFixation	VGS	38	2	False	lime	40	[ 90 570 405 675]	[1350 1830  405  675]
253.695	0.2	1196640	1196875	BlankScreen	VGS	38	2	False	lime	40	[ 90 570 405 675]	[1350 1830  405  675]
253.93	1.0	1196875	1197875	ELCue	VGS	38	2	False	lime	40	[ 90 570 405 675]	[1350 1830  405  675]
255.305	2.0	1198250	1200277	ShowFixation	VGS	39	2	False	lime	180	[405 885 405 675]	[1035 1515  405  675]
257.332	0.2	1200277	1200512	BlankScreen	VGS	39	2	False	lime	180	[405 885 405 675]	[1035 1515  405  675]
257.567	1.0	1200512	1201512	ELCue	VGS	39	2	False	lime	180	[405 885 405 675]	[1035 1515  405  675]
258.971	2.0	1201916	1203947	ShowFixation	ANTI	40	2	False	red	40	[1350 1830  405  675]	[ 90 570 405 675]
261.002	0.2	1203947	1204182	BlankScreen	ANTI	40	2	False	red	40	[1350 1830  405  675]	[ 90 570 405 675]
261.237	1.0	1204182	1205182	ELCue	ANTI	40	2	False	red	40	[1350 1830  405  675]	[ 90 570 405 675]
262.644	2.0	1205589	1207617	ShowFixation	ANTI	41	2	False	red	460	[405 885 405 675]	[1035 1515  405  675]
264.672	0.2	1207617	1207853	BlankScreen	ANTI	41	2	False	red	460	[405 885 405 675]	[1035 1515  405  675]
264.908	1.0	1207853	1208853	ELCue	ANTI	41	2	False	red	460	[405 885 405 675]	[1035 1515  405  675]
266.315	6.0	1209260	1215287	ShowFixation	VGS	42	2	False	lime	180	[405 885 405 675]	[1035 1515  405  675]
272.342	0.2	1215287	1215527	BlankScreen	VGS	42	2	False	lime	180	[405 885 405 675]	[1035 1515  405  675]
272.582	1.0	1215527	1216527	ELCue	VGS	42	2	False	lime	180	[405 885 405 675]	[1035 1515  405  675]
273.991	2.0	1216936	1218962	ShowFixation	ANTI	43	2	False	red	40	[1350 1830  405  675]	[ 90 570 405 675]
276.017	0.2	1218962	1219197	BlankScreen	ANTI	43	2	False	red	40	[1350 1830  405  675]	[ 90 570 405 675]
276.252	1.0	1219197	1220197	ELCue	ANTI	43	2	False	red	40	[1350 1830  405  675]	[ 90 570 405 675]
277.642	6.0	1220587	1226615	ShowFixation	VGS	44	2	False	lime	460	[1035 1515  405  675]	[405 885 405 675]
283.67	0.2	1226615	1226855	BlankScreen	VGS	44	2	False	lime	460	[1035 1515  405  675]	[405 885 405 675]
283.91	1.0	1226855	1227855	ELCue	VGS	44	2	False	lime	460	[1035 1515  405  675]	[405 885 405 675]
285.288	2.0	1228233	1230273	ShowFixation	ANTI	45	2	False	red	600	[ 90 570 405 675]	[1350 1830  405  675]
287.328	0.2	1230273	1230508	BlankScreen	ANTI	45	2	False	red	600	[ 90 570 405 675]	[1350 1830  405  675]
287.563	1.0	1230508	1231508	ELCue	ANTI	45	2	False	red	600	[ 90 570 405 675]	[1350 1830  405  675]
288.973	6.0	1231918	1237943	ShowFixation	ANTI	46	2	False	red	600	[ 90 570 405 675]	[1350 1830  405  675]
294.998	0.2	1237943	1238182	BlankScreen	ANTI	46	2	False	red	600	[ 90 570 405 675]	[1350 1830  405  675]
295.237	1.0	1238182	1239182	ELCue	ANTI	46	2	False	red	600	[ 90 570 405 675]	[1350 1830  405  675]
296.65	6.0	1239595	1245634	ShowFixation	ANTI	47	2	False	red	600	[ 90 570 405 675]	[1350 1830  405  675]
302.689	0.2	1245634	1245873	BlankScreen	ANTI	47	2	False	red	600	[ 90 570 405 675]	[1350 1830  405  675]
302.928	1.0	1245873	1246873	ELCue	ANTI	47	2	False	red	600	[ 90 570 405 675]	[1350 1830  405  675]
304.343	6.0	1247288	1253325	ShowFixation	ANTI	48	2	False	red	40	[1350 1830  405  675]	[ 90 570 405 675]
310.38	0.2	1253325	1253564	BlankScreen	ANTI	48	2	False	red	40	[1350 1830  405  675]	[ 90 570 405 675]
310.619	1.0	1253564	1254564	ELCue	ANTI	48	2	False	red	40	[1350 1830  405  675]	[ 90 570 405 675]
364.923	2.0	1307868	1309901	ShowFixation	ANTI	49	3	False	red	180	[1035 1515  405  675]	[405 885 405 675]
366.956	0.2	1309901	1310137	BlankScreen	ANTI	49	3	False	red	180	[1035 1515  405  675]	[405 885 405 675]
367.192	1.0	1310137	1311137	ELCue	ANTI	49	3	False	red	180	[1035 1515  405  675]	[405 885 405 675]
368.601	2.0	1311546	1313572	ShowFixation	VGS	50	3	False	lime	40	[ 90 570 405 675]	[1350 1830  405  675]
370.628	0.2	1313573	1313807	BlankScreen	VGS	50	3	False	lime	40	[ 90 570 405 675]	[1350 1830  405  675]
370.862	1.0	1313807	1314807	ELCue	VGS	50	3	False	lime	40	[ 90 570 405 675]	[1350 1830  405  675]
372.271	2.0	1315216	1317242	ShowFixation	ANTI	51	3	False	red	600	[ 90 570 405 675]	[1350 1830  405  675]
374.298	0.2	1317243	1317477	BlankScreen	ANTI	51	3	False	red	600	[ 90 570 405 675]	[1350 1830  405  675]
374.533	1.0	1317478	1318478	ELCue	ANTI	51	3	False	red	600	[ 90 570 405 675]	[1350 1830  405  675]
375.942	6.0	1318887	1324912	ShowFixation	VGS	52	3	False	lime	180	[405 885 405 675]	[1035 1515  405  675]
381.968	0.2	1324913	1325153	BlankScreen	VGS	52	3	False	lime	180	[405 885 405 675]	[1035 1515  405  675]
382.208	1.0	1325153	1326153	ELCue	VGS	52	3	False	lime	180	[405 885 405 675]	[1035 1515  405  675]
383.616	2.0	1326561	1328588	ShowFixation	VGS	53	3	False	lime	180	[405 885 405 675]	[1035 1515  405  675]
385.643	0.2	1328588	1328823	BlankScreen	VGS	53	3	False	lime	180	[405 885 405 675]	[1035 1515  405  675]
385.878	1.0	1328823	1329823	ELCue	VGS	53	3	False	lime	180	[405 885 405 675]	[1035 1515  405  675]
387.267	6.0	1330212	1336241	ShowFixation	ANTI	54	3	False	red	600	[ 90 570 405 675]	[1350 1830  405  675]
393.296	0.2	1336241	1336480	BlankScreen	ANTI	54	3	False	red	600	[ 90 570 405 675]	[1350 1830  405  675]
393.535	1.0	1336480	1337480	ELCue	ANTI	54	3	False	red	600	[ 90 570 405 675]	[1350 1830  405  675]
394.937	6.0	1337882	1343915	ShowFixation	ANTI	55	3	False	red	40	[1350 1830  405  675]	[ 90 570 405 675]
400.97	0.2	1343915	1344155	BlankScreen	ANTI	55	3	False	red	40	[1350 1830  405  675]	[ 90 570 405 675]
401.21	1.0	1344155	1345155	ELCue	ANTI	55	3	False	red	40	[1350 1830  405  675]	[ 90 570 405 675]
402.617	6.0	1345562	1351590	ShowFixation	ANTI	56	3	False	red	600	[ 90 570 405 675]	[1350 1830  405  675]
408.645	0.2	1351590	1351829	BlankScreen	ANTI	56	3	False	red	600	[ 90 570 405 675]	[1350 1830  405  675]
408.884	1.0	1351829	1352829	ELCue	ANTI	56	3	False	red	600	[ 90 570 405 675]	[1350 1830  405  675]
410.293	6.0	1353238	1359264	ShowFixation	VGS	57	3	False	lime	40	[ 90 570 405 675]	[1350 1830  405  675]
416.319	0.2	1359264	1359503	BlankScreen	VGS	57	3	False	lime	40	[ 90 570 405 675]	[1350 1830  405  675]
416.558	1.0	1359503	1360503	ELCue	VGS	57	3	False	lime	40	[ 90 570 405 675]	[1350 1830  405  675]
417.967	6.0	1360912	1366938	ShowFixation	ANTI	58	3	False	red	180	[1035 1515  405  675]	[405 885 405 675]
423.993	0.2	1366938	1367177	BlankScreen	ANTI	58	3	False	red	180	[1035 1515  405  675]	[405 885 405 675]
424.232	1.0	1367177	1368177	ELCue	ANTI	58	3	False	red	180	[1035 1515  405  675]	[405 885 405 675]
425.638	2.0	1368583	1370612	ShowFixation	ANTI	59	3	False	red	460	[405 885 405 675]	[1035 1515  405  675]
427.667	0.2	1370612	1370848	BlankScreen	ANTI	59	3	False	red	460	[405 885 405 675]	[1035 1515  405  675]
427.903	1.0	1370848	1371848	ELCue	ANTI	59	3	False	red	460	[405 885 405 675]	[1035 1515  405  675]
429.309	6.0	1372254	1378283	ShowFixation	VGS	60	3	False	lime	180	[405 885 405 675]	[1035 1515  405  675]
435.338	0.2	1378283	1378522	BlankScreen	VGS	60	3	False	lime	180	[405 885 405 675]	[1035 1515  405  675]
435.577	1.0	1378522	1379522	ELCue	VGS	60	3	False	lime	180	[405 885 405 675]	[1035 1515  405  675]
436.985	2.0	1379930	1381957	ShowFixation	VGS	61	3	False	lime	600	[1350 1830  405  675]	[ 90 570 405 675]
439.012	0.2	1381957	1382192	BlankScreen	VGS	61	3	False	lime	600	[1350 1830  405  675]	[ 90 570 405 675]
439.247	1.0	1382192	1383192	ELCue	VGS	61	3	False	lime	600	[1350 1830  405  675]	[ 90 570 405 675]
440.658	6.0	1383603	1389644	ShowFixation	ANTI	62	3	False	red	460	[405 885 405 675]	[1035 1515  405  675]
446.699	0.2	1389644	1389883	BlankScreen	ANTI	62	3	False	red	460	[405 885 405 675]	[1035 1515  405  675]
446.938	1.0	1389883	1390883	ELCue	ANTI	62	3	False	red	460	[405 885 405 675]	[1035 1515  405  675]
448.344	6.0	1391289	1397318	ShowFixation	ANTI	63	3	False	red	460	[405 885 405 675]	[1035 1515  405  675]
454.373	0.2	1397318	1397557	BlankScreen	ANTI	63	3	False	red	460	[405 885 405 675]	[1035 1515  405  675]
454.612	1.0	1397557	1398557	ELCue	ANTI	63	3	False	red	460	[405 885 405 675]	[1035 1515  405  675]
456.024	2.0	1398969	1401009	ShowFixation	ANTI	64	3	False	red	180	[1035 1515  405  675]	[405 885 405 675]
458.064	0.2	1401009	1401244	BlankScreen	ANTI	64	3	False	red	180	[1035 1515  405  675]	[405 885 405 675]
458.299	1.0	1401244	1402244	ELCue	ANTI	64	3	False	red	180	[1035 1515  405  675]	[405 885 405 675]
459.708	6.0	1402653	1408679	ShowFixation	ANTI	65	3	False	red	40	[1350 1830  405  675]	[ 90 570 405 675]
465.734	0.2	1408679	1408919	BlankScreen	ANTI	65	3	False	red	40	[1350 1830  405  675]	[ 90 570 405 675]
465.974	1.0	1408919	1409919	ELCue	ANTI	65	3	False	red	40	[1350 1830  405  675]	[ 90 570 405 675]
467.382	2.0	1410327	1412354	ShowFixation	VGS	66	3	False	lime	180	[405 885 405 675]	[1035 1515  405  675]
469.409	0.2	1412354	1412589	BlankScreen	VGS	66	3	False	lime	180	[405 885 405 675]	[1035 1515  405  675]
469.644	1.0	1412589	1413589	ELCue	VGS	66	3	False	lime	180	[405 885 405 675]	[1035 1515  405  675]
471.048	2.0	1413993	1416024	ShowFixation	VGS	67	3	False	lime	600	[1350 1830  405  675]	[ 90 570 405 675]
473.079	0.2	1416024	1416259	BlankScreen	VGS	67	3	False	lime	600	[1350 1830  405  675]	[ 90 570 405 675]
473.314	1.0	1416259	1417259	ELCue	VGS	67	3	False	lime	600	[1350 1830  405  675]	[ 90 570 405 675]
474.723	2.0	1417668	1419694	ShowFixation	ANTI	68	3	False	red	40	[1350 1830  405  675]	[ 90 570 405 675]
476.749	0.2	1419694	1419930	BlankScreen	ANTI	68	3	False	red	40	[1350 1830  405  675]	[ 90 570 405 675]
476.985	1.0	1419930	1420930	ELCue	ANTI	68	3	False	red	40	[1350 1830  405  675]	[ 90 570 405 675]
478.377	6.0	1421322	1427348	ShowFixation	VGS	69	3	False	lime	460	[1035 1515  405  675]	[405 885 405 675]
484.403	0.2	1427348	1427587	BlankScreen	VGS	69	3	False	lime	460	[1035 1515  405  675]	[405 885 405 675]
484.642	1.0	1427587	1428587	ELCue	VGS	69	3	False	lime	460	[1035 1515  405  675]	[405 885 405 675]
486.047	2.0	1428992	1431022	ShowFixation	ANTI	70	3	False	red	460	[405 885 405 675]	[1035 1515  405  675]
488.077	0.2	1431022	1431257	BlankScreen	ANTI	70	3	False	red	460	[405 885 405 675]	[1035 1515  405  675]
488.312	1.0	1431257	1432257	ELCue	ANTI	70	3	False	red	460	[405 885 405 675]	[1035 1515  405  675]
489.727	2.0	1432672	1434709	ShowFixation	ANTI	71	3	False	red	600	[ 90 570 405 675]	[1350 1830  405  675]
491.764	0.2	1434709	1434944	BlankScreen	ANTI	71	3	False	red	600	[ 90 570 405 675]	[1350 1830  405  675]
491.999	1.0	1434944	1435944	ELCue	ANTI	71	3	False	red	600	[ 90 570 405 675]	[1350 1830  405  675]
493.389	6.0	1436334	1442363	ShowFixation	VGS	72	3	False	lime	40	[ 90 570 405 675]	[1350 1830  405  675]
499.418	0.2	1442363	1442602	BlankScreen	VGS	72	3	False	lime	40	[ 90 570 405 675]	[1350 1830  405  675]
499.658	1.0	1442603	1443603	ELCue	VGS	72	3	False	lime	40	[ 90 570 405 675]	[1350 1830  405  675]
501.067	2.0	1444012	1446037	ShowFixation	VGS	73	3	False	lime	460	[1035 1515  405  675]	[405 885 405 675]
503.093	0.2	1446038	1446272	BlankScreen	VGS	73	3	False	lime	460	[1035 1515  405  675]	[405 885 405 675]
503.327	1.0	1446272	1447272	ELCue	VGS	73	3	False	lime	460	[1035 1515  405  675]	[405 885 405 675]
504.739	2.0	1447684	1449724	ShowFixation	ANTI	74	3	False	red	40	[1350 1830  405  675]	[ 90 570 405 675]
506.779	0.2	1449724	1449959	BlankScreen	ANTI	74	3	False	red	40	[1350 1830  405  675]	[ 90 570 405 675]
507.014	1.0	1449959	1450959	ELCue	ANTI	74	3	False	red	40	[1350 1830  405  675]	[ 90 570 405 675]
508.42	6.0	1451365	1457394	ShowFixation	ANTI	75	3	False	red	180	[1035 1515  405  675]	[405 885 405 675]
514.449	0.2	1457394	1457633	BlankScreen	ANTI	75	3	False	red	180	[1035 1515  405  675]	[405 885 405 675]
514.688	1.0	1457633	1458633	ELCue	ANTI	75	3	False	red	180	[1035 1515  405  675]	[405 885 405 675]
516.097	2.0	1459042	1461068	ShowFixation	VGS	76	3	False	lime	460	[1035 1515  405  675]	[405 885 405 675]
518.123	0.2	1461068	1461304	BlankScreen	VGS	76	3	False	lime	460	[1035 1515  405  675]	[405 885 405 675]
518.359	1.0	1461304	1462304	ELCue	VGS	76	3	False	lime	460	[1035 1515  405  675]	[405 885 405 675]
519.767	6.0	1462712	1468739	ShowFixation	VGS	77	3	False	lime	460	[1035 1515  405  675]	[405 885 405 675]
525.795	0.2	1468740	1468978	BlankScreen	VGS	77	3	False	lime	460	[1035 1515  405  675]	[405 885 405 675]
526.034	1.0	1468979	1469979	ELCue	VGS	77	3	False	lime	460	[1035 1515  405  675]	[405 885 405 675]
527.443	6.0	1470388	1476413	ShowFixation	VGS	78	3	False	lime	600	[1350 1830  405  675]	[ 90 570 405 675]
533.468	0.2	1476413	1476653	BlankScreen	VGS	78	3	False	lime	600	[1350 1830  405  675]	[ 90 570 405 675]
533.708	1.0	1476653	1477653	ELCue	VGS	78	3	False	lime	600	[1350 1830  405  675]	[ 90 570 405 675]
535.119	2.0	1478064	1480105	ShowFixation	VGS	79	3	False	lime	40	[ 90 570 405 675]	[1350 1830  405  675]
537.16	0.2	1480105	1480340	BlankScreen	VGS	79	3	False	lime	40	[ 90 570 405 675]	[1350 1830  405  675]
537.395	1.0	1480340	1481340	ELCue	VGS	79	3	False	lime	40	[ 90 570 405 675]	[1350 1830  405  675]
538.807	6.0	1481752	1487792	ShowFixation	VGS	80	3	False	lime	600	[1350 1830  405  675]	[ 90 570 405 675]
544.847	0.2	1487792	1488031	BlankScreen	VGS	80	3	False	lime	600	[1350 1830  405  675]	[ 90 570 405 675]
545.086	1.0	1488031	1489031	ELCue	VGS	80	3	False	lime	600	[1350 1830  405  675]	[ 90 570 405 675]
651.097	2.0	1594042	1596069	ShowFixation	ANTI	81	4	False	red	40	[1350 1830  405  675]	[ 90 570 405 675]
653.124	0.2	1596069	1596305	BlankScreen	ANTI	81	4	False	red	40	[1350 1830  405  675]	[ 90 570 405 675]
653.36	1.0	1596305	1597305	ELCue	ANTI	81	4	False	red	40	[1350 1830  405  675]	[ 90 570 405 675]
654.889	6.0	1597834	1603873	ShowFixation	ANTI	82	4	False	red	460	[405 885 405 675]	[1035 1515  405  675]
660.928	0.2	1603873	1604112	BlankScreen	ANTI	82	4	False	red	460	[405 885 405 675]	[1035 1515  405  675]
661.167	1.0	1604112	1605112	ELCue	ANTI	82	4	False	red	460	[405 885 405 675]	[1035 1515  405  675]
662.577	6.0	1605522	1611547	ShowFixation	VGS	83	4	False	lime	600	[1350 1830  405  675]	[ 90 570 405 675]
668.602	0.2	1611547	1611787	BlankScreen	VGS	83	4	False	lime	600	[1350 1830  405  675]	[ 90 570 405 675]
668.842	1.0	1611787	1612787	ELCue	VGS	83	4	False	lime	600	[1350 1830  405  675]	[ 90 570 405 675]
670.251	6.0	1613196	1619222	ShowFixation	VGS	84	4	False	lime	180	[405 885 405 675]	[1035 1515  405  675]
676.277	0.2	1619222	1619461	BlankScreen	VGS	84	4	False	lime	180	[405 885 405 675]	[1035 1515  405  675]
676.517	1.0	1619462	1620462	ELCue	VGS	84	4	False	lime	180	[405 885 405 675]	[1035 1515  405  675]
677.922	2.0	1620867	1622896	ShowFixation	VGS	85	4	False	lime	180	[405 885 405 675]	[1035 1515  405  675]
679.952	0.2	1622897	1623132	BlankScreen	VGS	85	4	False	lime	180	[405 885 405 675]	[1035 1515  405  675]
680.187	1.0	1623132	1624132	ELCue	VGS	85	4	False	lime	180	[405 885 405 675]	[1035 1515  405  675]
681.597	2.0	1624542	1626584	ShowFixation	ANTI	86	4	False	red	180	[1035 1515  405  675]	[405 885 405 675]
683.639	0.2	1626584	1626819	BlankScreen	ANTI	86	4	False	red	180	[1035 1515  405  675]	[405 885 405 675]
683.874	1.0	1626819	1627819	ELCue	ANTI	86	4	False	red	180	[1035 1515  405  675]	[405 885 405 675]
685.284	6.0	1628229	1634271	ShowFixation	VGS	87	4	False	lime	40	[ 90 570 405 675]	[1350 1830  405  675]
691.326	0.2	1634271	1634510	BlankScreen	VGS	87	4	False	lime	40	[ 90 570 405 675]	[1350 1830  405  675]
691.565	1.0	1634510	1635510	ELCue	VGS	87	4	False	lime	40	[ 90 570 405 675]	[1350 1830  405  675]
692.972	2.0	1635917	1637945	ShowFixation	VGS	88	4	False	lime	40	[ 90 570 405 675]	[1350 1830  405  675]
695.0	0.2	1637945	1638180	BlankScreen	VGS	88	4	False	lime	40	[ 90 570 405 675]	[1350 1830  405  675]
695.235	1.0	1638180	1639180	ELCue	VGS	88	4	False	lime	40	[ 90 570 405 675]	[1350 1830  405  675]
696.646	6.0	1639591	1645632	ShowFixation	VGS	89	4	False	lime	460	[1035 1515  405  675]	[405 885 405 675]
702.687	0.2	1645632	1645871	BlankScreen	VGS	89	4	False	lime	460	[1035 1515  405  675]	[405 885 405 675]
702.926	1.0	1645871	1646871	ELCue	VGS	89	4	False	lime	460	[1035 1515  405  675]	[405 885 405 675]
704.33	2.0	1647275	1649306	ShowFixation	VGS	90	4	False	lime	180	[405 885 405 675]	[1035 1515  405  675]
706.361	0.2	1649306	1649541	BlankScreen	VGS	90	4	False	lime	180	[405 885 405 675]	[1035 1515  405  675]
706.596	1.0	1649541	1650541	ELCue	VGS	90	4	False	lime	180	[405 885 405 675]	[1035 1515  405  675]
708.063	6.0	1651008	1657043	ShowFixation	VGS	91	4	False	lime	180	[405 885 405 675]	[1035 1515  405  675]
714.098	0.2	1657043	1657282	BlankScreen	VGS	91	4	False	lime	180	[405 885 405 675]	[1035 1515  405  675]
714.337	1.0	1657282	1658282	ELCue	VGS	91	4	False	lime	180	[405 885 405 675]	[1035 1515  405  675]
715.748	2.0	1658693	1660734	ShowFixation	ANTI	92	4	False	red	460	[405 885 405 675]	[1035 1515  405  675]
717.789	0.2	1660734	1660969	BlankScreen	ANTI	92	4	False	red	460	[405 885 405 675]	[1035 1515  405  675]
718.024	1.0	1660969	1661969	ELCue	ANTI	92	4	False	red	460	[405 885 405 675]	[1035 1515  405  675]
719.436	2.0	1662381	1664421	ShowFixation	ANTI	93	4	False	red	600	[ 90 570 405 675]	[1350 1830  405  675]
721.476	0.2	1664421	1664656	BlankScreen	ANTI	93	4	False	red	600	[ 90 570 405 675]	[1350 1830  405  675]
721.711	1.0	1664656	1665656	ELCue	ANTI	93	4	False	red	600	[ 90 570 405 675]	[1350 1830  405  675]
723.118	6.0	1666063	1672091	ShowFixation	ANTI	94	4	False	red	460	[405 885 405 675]	[1035 1515  405  675]
729.146	0.2	1672091	1672331	BlankScreen	ANTI	94	4	False	red	460	[405 885 405 675]	[1035 1515  405  675]
729.386	1.0	1672331	1673331	ELCue	ANTI	94	4	False	red	460	[405 885 405 675]	[1035 1515  405  675]
730.79	2.0	1673735	1675766	ShowFixation	VGS	95	4	False	lime	460	[1035 1515  405  675]	[405 885 405 675]
732.821	0.2	1675766	1676001	BlankScreen	VGS	95	4	False	lime	460	[1035 1515  405  675]	[405 885 405 675]
733.056	1.0	1676001	1677001	ELCue	VGS	95	4	False	lime	460	[1035 1515  405  675]	[405 885 405 675]
734.464	6.0	1677409	1683436	ShowFixation	ANTI	96	4	False	red	180	[1035 1515  405  675]	[405 885 405 675]
740.491	0.2	1683436	1683675	BlankScreen	ANTI	96	4	False	red	180	[1035 1515  405  675]	[405 885 405 675]
740.73	1.0	1683675	1684675	ELCue	ANTI	96	4	False	red	180	[1035 1515  405  675]	[405 885 405 675]
742.142	2.0	1685087	1687127	ShowFixation	VGS	97	4	False	lime	460	[1035 1515  405  675]	[405 885 405 675]
744.182	0.2	1687127	1687362	BlankScreen	VGS	97	4	False	lime	460	[1035 1515  405  675]	[405 885 405 675]
744.417	1.0	1687362	1688362	ELCue	VGS	97	4	False	lime	460	[1035 1515  405  675]	[405 885 405 675]
745.828	6.0	1688773	1694814	ShowFixation	ANTI	98	4	False	red	40	[1350 1830  405  675]	[ 90 570 405 675]
751.869	0.2	1694814	1695053	BlankScreen	ANTI	98	4	False	red	40	[1350 1830  405  675]	[ 90 570 405 675]
752.108	1.0	1695053	1696053	ELCue	ANTI	98	4	False	red	40	[1350 1830  405  675]	[ 90 570 405 675]
753.518	2.0	1696463	1698488	ShowFixation	ANTI	99	4	False	red	600	[ 90 570 405 675]	[1350 1830  405  675]
755.543	0.2	1698488	1698723	BlankScreen	ANTI	99	4	False	red	600	[ 90 570 405 675]	[1350 1830  405  675]
755.778	1.0	1698723	1699723	ELCue	ANTI	99	4	False	red	600	[ 90 570 405 675]	[1350 1830  405  675]
757.186	2.0	1700131	1702158	ShowFixation	ANTI	100	4	False	red	460	[405 885 405 675]	[1035 1515  405  675]
759.213	0.2	1702158	1702394	BlankScreen	ANTI	100	4	False	red	460	[405 885 405 675]	[1035 1515  405  675]
759.449	1.0	1702394	1703394	ELCue	ANTI	100	4	False	red	460	[405 885 405 675]	[1035 1515  405  675]
760.858	2.0	1703803	1705829	ShowFixation	ANTI	101	4	False	red	180	[1035 1515  405  675]	[405 885 405 675]
762.884	0.2	1705829	1706064	BlankScreen	ANTI	101	4	False	red	180	[1035 1515  405  675]	[405 885 405 675]
763.119	1.0	1706064	1707064	ELCue	ANTI	101	4	False	red	180	[1035 1515  405  675]	[405 885 405 675]
764.496	6.0	1707441	1713466	ShowFixation	ANTI	102	4	False	red	180	[1035 1515  405  675]	[405 885 405 675]
770.521	0.2	1713466	1713705	BlankScreen	ANTI	102	4	False	red	180	[1035 1515  405  675]	[405 885 405 675]
770.76	1.0	1713705	1714705	ELCue	ANTI	102	4	False	red	180	[1035 1515  405  675]	[405 885 405 675]
772.17	6.0	1715115	1721140	ShowFixation	VGS	103	4	False	lime	40	[ 90 570 405 675]	[1350 1830  405  675]
778.195	0.2	1721140	1721379	BlankScreen	VGS	103	4	False	lime	40	[ 90 570 405 675]	[1350 1830  405  675]
778.434	1.0	1721379	1722379	ELCue	VGS	103	4	False	lime	40	[ 90 570 405 675]	[1350 1830  405  675]
779.846	6.0	1722791	1728831	ShowFixation	VGS	104	4	False	lime	600	[1350 1830  405  675]	[ 90 570 405 675]
785.886	0.2	1728831	1729070	BlankScreen	VGS	104	4	False	lime	600	[1350 1830  405  675]	[ 90 570 405 675]
786.125	1.0	1729070	1730070	ELCue	VGS	104	4	False	lime	600	[1350 1830  405  675]	[ 90 570 405 675]
787.539	6.0	1730484	1736522	ShowFixation	ANTI	105	4	False	red	600	[ 90 570 405 675]	[1350 1830  405  675]
793.577	0.2	1736522	1736761	BlankScreen	ANTI	105	4	False	red	600	[ 90 570 405 675]	[1350 1830  405  675]
793.816	1.0	1736761	1737761	ELCue	ANTI	105	4	False	red	600	[ 90 570 405 675]	[1350 1830  405  675]
795.226	2.0	1738171	1740196	ShowFixation	ANTI	106	4	False	red	40	[1350 1830  405  675]	[ 90 570 405 675]
797.251	0.2	1740196	1740431	BlankScreen	ANTI	106	4	False	red	40	[1350 1830  405  675]	[ 90 570 405 675]
797.486	1.0	1740431	1741431	ELCue	ANTI	106	4	False	red	40	[1350 1830  405  675]	[ 90 570 405 675]
798.898	2.0	1741843	1743883	ShowFixation	VGS	107	4	False	lime	40	[ 90 570 405 675]	[1350 1830  405  675]
800.938	0.2	1743883	1744118	BlankScreen	VGS	107	4	False	lime	40	[ 90 570 405 675]	[1350 1830  405  675]
801.173	1.0	1744118	1745118	ELCue	VGS	107	4	False	lime	40	[ 90 570 405 675]	[1350 1830  405  675]
802.578	6.0	1745523	1751553	ShowFixation	ANTI	108	4	False	red	600	[ 90 570 405 675]	[1350 1830  405  675]
808.609	0.2	1751554	1751792	BlankScreen	ANTI	108	4	False	red	600	[ 90 570 405 675]	[1350 1830  405  675]
808.847	1.0	1751792	1752792	ELCue	ANTI	108	4	False	red	600	[ 90 570 405 675]	[1350 1830  405  675]
810.256	2.0	1753201	1755227	ShowFixation	VGS	109	4	False	lime	600	[1350 1830  405  675]	[ 90 570 405 675]
812.282	0.2	1755227	1755463	BlankScreen	VGS	109	4	False	lime	600	[1350 1830  405  675]	[ 90 570 405 675]
812.518	1.0	1755463	1756463	ELCue	VGS	109	4	False	lime	600	[1350 1830  405  675]	[ 90 570 405 675]
813.928	2.0	1756873	1758899	ShowFixation	VGS	110	4	False	lime	600	[1350 1830  405  675]	[ 90 570 405 675]
815.954	0.2	1758899	1759133	BlankScreen	VGS	110	4	False	lime	600	[1350 1830  405  675]	[ 90 570 405 675]
816.188	1.0	1759133	1760133	ELCue	VGS	110	4	False	lime	600	[1350 1830  405  675]	[ 90 570 405 675]
817.594	6.0	1760539	1766568	ShowFixation	VGS	111	4	False	lime	460	[1035 1515  405  675]	[405 885 405 675]
823.623	0.2	1766568	1766807	BlankScreen	VGS	111	4	False	lime	460	[1035 1515  405  675]	[405 885 405 675]
823.863	1.0	1766808	1767808	ELCue	VGS	111	4	False	lime	460	[1035 1515  405  675]	[405 885 405 675]
825.267	6.0	1768212	1774242	ShowFixation	ANTI	112	4	False	red	40	[1350 1830  405  675]	[ 90 570 405 675]
831.297	0.2	1774242	1774482	BlankScreen	ANTI	112	4	False	red	40	[1350 1830  405  675]	[ 90 570 405 675]
831.537	1.0	1774482	1775482	ELCue	ANTI	112	4	False	red	40	[1350 1830  405  675]	[ 90 570 405 675]
