onset	duration	startTime	stopTime	eventIdentifier	trial_type	trial_number	block_number	is_practice	fixation_color	cue_side	aoi_correct	aoi_incorrect
0.142	6.0	778279	784313	ShowFixation	VGS	1	1	True	lime	180	[405 885 405 675]	[1035 1515  405  675]
6.176	0.2	784313	784552	BlankScreen	VGS	1	1	True	lime	180	[405 885 405 675]	[1035 1515  405  675]
6.415	1.0	784552	785593	ELCue	VGS	1	1	True	lime	180	[405 885 405 675]	[1035 1515  405  675]
7.862	6.0	785999	792638	ShowFixation	ANTI	2	1	True	red	460	[405 885 405 675]	[1035 1515  405  675]
14.501	0.2	792638	792877	BlankScreen	ANTI	2	1	True	red	460	[405 885 405 675]	[1035 1515  405  675]
14.74	1.0	792877	793917	ELCue	ANTI	2	1	True	red	460	[405 885 405 675]	[1035 1515  405  675]
16.185	6.0	794322	800963	ShowFixation	VGS	3	1	True	lime	460	[1035 1515  405  675]	[405 885 405 675]
22.826	0.2	800963	801202	BlankScreen	VGS	3	1	True	lime	460	[1035 1515  405  675]	[405 885 405 675]
23.065	1.0	801202	802242	ELCue	VGS	3	1	True	lime	460	[1035 1515  405  675]	[405 885 405 675]
24.505	2.0	802642	805287	ShowFixation	ANTI	4	1	True	red	600	[ 90 570 405 675]	[1350 1830  405  675]
27.15	0.2	805287	805523	BlankScreen	ANTI	4	1	True	red	600	[ 90 570 405 675]	[1350 1830  405  675]
27.386	1.0	805523	806563	ELCue	ANTI	4	1	True	red	600	[ 90 570 405 675]	[1350 1830  405  675]
28.828	6.0	806965	813592	ShowFixation	ANTI	5	1	True	red	40	[1350 1830  405  675]	[ 90 570 405 675]
35.455	0.2	813592	813831	BlankScreen	ANTI	5	1	True	red	40	[1350 1830  405  675]	[ 90 570 405 675]
35.694	1.0	813831	814871	ELCue	ANTI	5	1	True	red	40	[1350 1830  405  675]	[ 90 570 405 675]
37.137	2.0	815274	817917	ShowFixation	ANTI	6	1	True	red	40	[1350 1830  405  675]	[ 90 570 405 675]
39.78	0.2	817917	818152	BlankScreen	ANTI	6	1	True	red	40	[1350 1830  405  675]	[ 90 570 405 675]
40.015	1.0	818152	819192	ELCue	ANTI	6	1	True	red	40	[1350 1830  405  675]	[ 90 570 405 675]
41.441	2.0	819578	822221	ShowFixation	VGS	7	1	True	lime	40	[ 90 570 405 675]	[1350 1830  405  675]
44.084	0.2	822221	822439	BlankScreen	VGS	7	1	True	lime	40	[ 90 570 405 675]	[1350 1830  405  675]
44.302	1.0	822439	823463	ELCue	VGS	7	1	True	lime	40	[ 90 570 405 675]	[1350 1830  405  675]
45.731	2.0	823868	826508	ShowFixation	ANTI	8	1	True	red	460	[405 885 405 675]	[1035 1515  405  675]
48.371	0.2	826508	826744	BlankScreen	ANTI	8	1	True	red	460	[405 885 405 675]	[1035 1515  405  675]
48.607	1.0	826744	827784	ELCue	ANTI	8	1	True	red	460	[405 885 405 675]	[1035 1515  405  675]
50.048	2.0	828185	830829	ShowFixation	VGS	9	1	True	lime	460	[1035 1515  405  675]	[405 885 405 675]
52.692	0.2	830829	831065	BlankScreen	VGS	9	1	True	lime	460	[1035 1515  405  675]	[405 885 405 675]
52.928	1.0	831065	832105	ELCue	VGS	9	1	True	lime	460	[1035 1515  405  675]	[405 885 405 675]
54.372	2.0	832509	835134	ShowFixation	VGS	10	1	True	lime	180	[405 885 405 675]	[1035 1515  405  675]
56.997	0.2	835134	835352	BlankScreen	VGS	10	1	True	lime	180	[405 885 405 675]	[1035 1515  405  675]
57.215	1.0	835352	836376	ELCue	VGS	10	1	True	lime	180	[405 885 405 675]	[1035 1515  405  675]
58.644	2.0	836781	839421	ShowFixation	ANTI	11	1	True	red	180	[1035 1515  405  675]	[405 885 405 675]
61.284	0.2	839421	839656	BlankScreen	ANTI	11	1	True	red	180	[1035 1515  405  675]	[405 885 405 675]
61.519	1.0	839656	840697	ELCue	ANTI	11	1	True	red	180	[1035 1515  405  675]	[405 885 405 675]
62.959	2.0	841096	843725	ShowFixation	VGS	12	1	True	lime	600	[1350 1830  405  675]	[ 90 570 405 675]
65.588	0.2	843725	843944	BlankScreen	VGS	12	1	True	lime	600	[1350 1830  405  675]	[ 90 570 405 675]
65.807	1.0	843944	844968	ELCue	VGS	12	1	True	lime	600	[1350 1830  405  675]	[ 90 570 405 675]
67.234	6.0	845371	852013	ShowFixation	VGS	13	1	True	lime	40	[ 90 570 405 675]	[1350 1830  405  675]
73.876	0.2	852013	852252	BlankScreen	VGS	13	1	True	lime	40	[ 90 570 405 675]	[1350 1830  405  675]
74.115	1.0	852252	853293	ELCue	VGS	13	1	True	lime	40	[ 90 570 405 675]	[1350 1830  405  675]
75.556	6.0	853693	860338	ShowFixation	ANTI	14	1	True	red	180	[1035 1515  405  675]	[405 885 405 675]
82.201	0.2	860338	860577	BlankScreen	ANTI	14	1	True	red	180	[1035 1515  405  675]	[405 885 405 675]
82.44	1.0	860577	861618	ELCue	ANTI	14	1	True	red	180	[1035 1515  405  675]	[405 885 405 675]
83.858	6.0	861995	868663	ShowFixation	ANTI	15	1	True	red	600	[ 90 570 405 675]	[1350 1830  405  675]
90.526	0.2	868663	868902	BlankScreen	ANTI	15	1	True	red	600	[ 90 570 405 675]	[1350 1830  405  675]
90.765	1.0	868902	869943	ELCue	ANTI	15	1	True	red	600	[ 90 570 405 675]	[1350 1830  405  675]
92.21	6.0	870347	876988	ShowFixation	VGS	16	1	True	lime	600	[1350 1830  405  675]	[ 90 570 405 675]
98.851	0.2	876988	877227	BlankScreen	VGS	16	1	True	lime	600	[1350 1830  405  675]	[ 90 570 405 675]
99.09	1.0	877227	878268	ELCue	VGS	16	1	True	lime	600	[1350 1830  405  675]	[ 90 570 405 675]
124.272	6.0	902409	908436	ShowFixation	ANTI	17	2	False	red	460	[405 885 405 675]	[1035 1515  405  675]
130.299	0.2	908436	908676	BlankScreen	ANTI	17	2	False	red	460	[405 885 405 675]	[1035 1515  405  675]
130.539	1.0	908676	909676	ELCue	ANTI	17	2	False	red	460	[405 885 405 675]	[1035 1515  405  675]
131.947	2.0	910084	912110	ShowFixation	VGS	18	2	False	lime	600	[1350 1830  405  675]	[ 90 570 405 675]
133.973	0.2	912110	912346	BlankScreen	VGS	18	2	False	lime	600	[1350 1830  405  675]	[ 90 570 405 675]
134.209	1.0	912346	913346	ELCue	VGS	18	2	False	lime	600	[1350 1830  405  675]	[ 90 570 405 675]
135.616	6.0	913753	919781	ShowFixation	ANTI	19	2	False	red	600	[ 90 570 405 675]	[1350 1830  405  675]
141.644	0.2	919781	920020	BlankScreen	ANTI	19	2	False	red	600	[ 90 570 405 675]	[1350 1830  405  675]
141.883	1.0	920020	921020	ELCue	ANTI	19	2	False	red	600	[ 90 570 405 675]	[1350 1830  405  675]
143.257	2.0	921394	923422	ShowFixation	ANTI	20	2	False	red	40	[1350 1830  405  675]	[ 90 570 405 675]
145.285	0.2	923422	923657	BlankScreen	ANTI	20	2	False	red	40	[1350 1830  405  675]	[ 90 570 405 675]
145.52	1.0	923657	924657	ELCue	ANTI	20	2	False	red	40	[1350 1830  405  675]	[ 90 570 405 675]
146.927	2.0	925064	927092	ShowFixation	VGS	21	2	False	lime	600	[1350 1830  405  675]	[ 90 570 405 675]
148.955	0.2	927092	927327	BlankScreen	VGS	21	2	False	lime	600	[1350 1830  405  675]	[ 90 570 405 675]
149.19	1.0	927327	928327	ELCue	VGS	21	2	False	lime	600	[1350 1830  405  675]	[ 90 570 405 675]
150.598	6.0	928735	934762	ShowFixation	ANTI	22	2	False	red	180	[1035 1515  405  675]	[405 885 405 675]
156.625	0.2	934762	935002	BlankScreen	ANTI	22	2	False	red	180	[1035 1515  405  675]	[405 885 405 675]
156.865	1.0	935002	936002	ELCue	ANTI	22	2	False	red	180	[1035 1515  405  675]	[405 885 405 675]
158.274	2.0	936411	938436	ShowFixation	ANTI	23	2	False	red	460	[405 885 405 675]	[1035 1515  405  675]
160.299	0.2	938436	938672	BlankScreen	ANTI	23	2	False	red	460	[405 885 405 675]	[1035 1515  405  675]
160.535	1.0	938672	939672	ELCue	ANTI	23	2	False	red	460	[405 885 405 675]	[1035 1515  405  675]
161.943	2.0	940080	942107	ShowFixation	ANTI	24	2	False	red	40	[1350 1830  405  675]	[ 90 570 405 675]
163.97	0.2	942107	942342	BlankScreen	ANTI	24	2	False	red	40	[1350 1830  405  675]	[ 90 570 405 675]
164.205	1.0	942342	943342	ELCue	ANTI	24	2	False	red	40	[1350 1830  405  675]	[ 90 570 405 675]
165.616	6.0	943753	949794	ShowFixation	VGS	25	2	False	lime	40	[ 90 570 405 675]	[1350 1830  405  675]
171.657	0.2	949794	950033	BlankScreen	VGS	25	2	False	lime	40	[ 90 570 405 675]	[1350 1830  405  675]
171.896	1.0	950033	951033	ELCue	VGS	25	2	False	lime	40	[ 90 570 405 675]	[1350 1830  405  675]
173.305	2.0	951442	953468	ShowFixation	ANTI	26	2	False	red	600	[ 90 570 405 675]	[1350 1830  405  675]
175.331	0.2	953468	953703	BlankScreen	ANTI	26	2	False	red	600	[ 90 570 405 675]	[1350 1830  405  675]
175.566	1.0	953703	954703	ELCue	ANTI	26	2	False	red	600	[ 90 570 405 675]	[1350 1830  405  675]
176.958	6.0	955095	961122	ShowFixation	ANTI	27	2	False	red	460	[405 885 405 675]	[1035 1515  405  675]
182.985	0.2	961122	961361	BlankScreen	ANTI	27	2	False	red	460	[405 885 405 675]	[1035 1515  405  675]
183.224	1.0	961361	962361	ELCue	ANTI	27	2	False	red	460	[405 885 405 675]	[1035 1515  405  675]
184.631	2.0	962768	964796	ShowFixation	VGS	28	2	False	lime	460	[1035 1515  405  675]	[405 885 405 675]
186.659	0.2	964796	965031	BlankScreen	VGS	28	2	False	lime	460	[1035 1515  405  675]	[405 885 405 675]
186.894	1.0	965031	966031	ELCue	VGS	28	2	False	lime	460	[1035 1515  405  675]	[405 885 405 675]
188.302	6.0	966439	972466	ShowFixation	VGS	29	2	False	lime	40	[ 90 570 405 675]	[1350 1830  405  675]
194.329	0.2	972466	972705	BlankScreen	VGS	29	2	False	lime	40	[ 90 570 405 675]	[1350 1830  405  675]
194.568	1.0	972705	973705	ELCue	VGS	29	2	False	lime	40	[ 90 570 405 675]	[1350 1830  405  675]
195.973	2.0	974110	976140	ShowFixation	VGS	30	2	False	lime	180	[405 885 405 675]	[1035 1515  405  675]
198.003	0.2	976140	976376	BlankScreen	VGS	30	2	False	lime	180	[405 885 405 675]	[1035 1515  405  675]
198.239	1.0	976376	977376	ELCue	VGS	30	2	False	lime	180	[405 885 405 675]	[1035 1515  405  675]
199.644	6.0	977781	983811	ShowFixation	ANTI	31	2	False	red	40	[1350 1830  405  675]	[ 90 570 405 675]
205.674	0.2	983811	984050	BlankScreen	ANTI	31	2	False	red	40	[1350 1830  405  675]	[ 90 570 405 675]
205.913	1.0	984050	985050	ELCue	ANTI	31	2	False	red	40	[1350 1830  405  675]	[ 90 570 405 675]
207.322	6.0	985459	991485	ShowFixation	ANTI	32	2	False	red	600	[ 90 570 405 675]	[1350 1830  405  675]
213.348	0.2	991485	991724	BlankScreen	ANTI	32	2	False	red	600	[ 90 570 405 675]	[1350 1830  405  675]
213.587	1.0	991724	992724	ELCue	ANTI	32	2	False	red	600	[ 90 570 405 675]	[1350 1830  405  675]
215.002	2.0	993139	995176	ShowFixation	VGS	33	2	False	lime	40	[ 90 570 405 675]	[1350 1830  405  675]
217.04	0.2	995177	995411	BlankScreen	VGS	33	2	False	lime	40	[ 90 570 405 675]	[1350 1830  405  675]
217.274	1.0	995411	996411	ELCue	VGS	33	2	False	lime	40	[ 90 570 405 675]	[1350 1830  405  675]
218.685	6.0	996822	1002847	ShowFixation	VGS	34	2	False	lime	460	[1035 1515  405  675]	[405 885 405 675]
224.71	0.2	1002847	1003086	BlankScreen	VGS	34	2	False	lime	460	[1035 1515  405  675]	[405 885 405 675]
224.949	1.0	1003086	1004086	ELCue	VGS	34	2	False	lime	460	[1035 1515  405  675]	[405 885 405 675]
226.354	6.0	1004491	1010521	ShowFixation	VGS	35	2	False	lime	180	[405 885 405 675]	[1035 1515  405  675]
232.384	0.2	1010521	1010761	BlankScreen	VGS	35	2	False	lime	180	[405 885 405 675]	[1035 1515  405  675]
232.624	1.0	1010761	1011761	ELCue	VGS	35	2	False	lime	180	[405 885 405 675]	[1035 1515  405  675]
234.028	2.0	1012165	1014196	ShowFixation	ANTI	36	2	False	red	600	[ 90 570 405 675]	[1350 1830  405  675]
236.059	0.2	1014196	1014431	BlankScreen	ANTI	36	2	False	red	600	[ 90 570 405 675]	[1350 1830  405  675]
236.294	1.0	1014431	1015431	ELCue	ANTI	36	2	False	red	600	[ 90 570 405 675]	[1350 1830  405  675]
237.701	2.0	1015838	1017866	ShowFixation	ANTI	37	2	False	red	180	[1035 1515  405  675]	[405 885 405 675]
239.729	0.2	1017866	1018101	BlankScreen	ANTI	37	2	False	red	180	[1035 1515  405  675]	[405 885 405 675]
239.964	1.0	1018101	1019101	ELCue	ANTI	37	2	False	red	180	[1035 1515  405  675]	[405 885 405 675]
241.372	2.0	1019509	1021536	ShowFixation	ANTI	38	2	False	red	460	[405 885 405 675]	[1035 1515  405  675]
243.399	0.2	1021536	1021771	BlankScreen	ANTI	38	2	False	red	460	[405 885 405 675]	[1035 1515  405  675]
243.634	1.0	1021771	1022771	ELCue	ANTI	38	2	False	red	460	[405 885 405 675]	[1035 1515  405  675]
245.01	2.0	1023147	1025173	ShowFixation	VGS	39	2	False	lime	40	[ 90 570 405 675]	[1350 1830  405  675]
247.036	0.2	1025173	1025408	BlankScreen	VGS	39	2	False	lime	40	[ 90 570 405 675]	[1350 1830  405  675]
247.271	1.0	1025408	1026408	ELCue	VGS	39	2	False	lime	40	[ 90 570 405 675]	[1350 1830  405  675]
248.679	2.0	1026816	1028843	ShowFixation	VGS	40	2	False	lime	180	[405 885 405 675]	[1035 1515  405  675]
250.706	0.2	1028843	1029079	BlankScreen	VGS	40	2	False	lime	180	[405 885 405 675]	[1035 1515  405  675]
250.942	1.0	1029079	1030079	ELCue	VGS	40	2	False	lime	180	[405 885 405 675]	[1035 1515  405  675]
252.346	6.0	1030483	1036514	ShowFixation	VGS	41	2	False	lime	600	[1350 1830  405  675]	[ 90 570 405 675]
258.377	0.2	1036514	1036753	BlankScreen	VGS	41	2	False	lime	600	[1350 1830  405  675]	[ 90 570 405 675]
258.616	1.0	1036753	1037753	ELCue	VGS	41	2	False	lime	600	[1350 1830  405  675]	[ 90 570 405 675]
260.026	6.0	1038163	1044188	ShowFixation	VGS	42	2	False	lime	180	[405 885 405 675]	[1035 1515  405  675]
266.051	0.2	1044188	1044427	BlankScreen	VGS	42	2	False	lime	180	[405 885 405 675]	[1035 1515  405  675]
266.29	1.0	1044427	1045427	ELCue	VGS	42	2	False	lime	180	[405 885 405 675]	[1035 1515  405  675]
267.702	6.0	1045839	1051879	ShowFixation	ANTI	43	2	False	red	180	[1035 1515  405  675]	[405 885 405 675]
273.742	0.2	1051879	1052118	BlankScreen	ANTI	43	2	False	red	180	[1035 1515  405  675]	[405 885 405 675]
273.981	1.0	1052118	1053118	ELCue	ANTI	43	2	False	red	180	[1035 1515  405  675]	[405 885 405 675]
275.388	6.0	1053525	1059553	ShowFixation	VGS	44	2	False	lime	460	[1035 1515  405  675]	[405 885 405 675]
281.416	0.2	1059553	1059792	BlankScreen	VGS	44	2	False	lime	460	[1035 1515  405  675]	[405 885 405 675]
281.655	1.0	1059792	1060792	ELCue	VGS	44	2	False	lime	460	[1035 1515  405  675]	[405 885 405 675]
283.059	2.0	1061196	1063227	ShowFixation	ANTI	45	2	False	red	180	[1035 1515  405  675]	[405 885 405 675]
285.09	0.2	1063227	1063463	BlankScreen	ANTI	45	2	False	red	180	[1035 1515  405  675]	[405 885 405 675]
285.326	1.0	1063463	1064463	ELCue	ANTI	45	2	False	red	180	[1035 1515  405  675]	[405 885 405 675]
286.726	6.0	1064863	1070898	ShowFixation	ANTI	46	2	False	red	40	[1350 1830  405  675]	[ 90 570 405 675]
292.761	0.2	1070898	1071137	BlankScreen	ANTI	46	2	False	red	40	[1350 1830  405  675]	[ 90 570 405 675]
293.0	1.0	1071137	1072137	ELCue	ANTI	46	2	False	red	40	[1350 1830  405  675]	[ 90 570 405 675]
294.405	6.0	1072542	1078572	ShowFixation	VGS	47	2	False	lime	600	[1350 1830  405  675]	[ 90 570 405 675]
300.435	0.2	1078572	1078811	BlankScreen	VGS	47	2	False	lime	600	[1350 1830  405  675]	[ 90 570 405 675]
300.674	1.0	1078811	1079811	ELCue	VGS	47	2	False	lime	600	[1350 1830  405  675]	[ 90 570 405 675]
302.144	2.0	1080281	1082313	ShowFixation	VGS	48	2	False	lime	460	[1035 1515  405  675]	[405 885 405 675]
304.176	0.2	1082313	1082548	BlankScreen	VGS	48	2	False	lime	460	[1035 1515  405  675]	[405 885 405 675]
304.411	1.0	1082548	1083548	ELCue	VGS	48	2	False	lime	460	[1035 1515  405  675]	[405 885 405 675]
365.59	2.0	1143727	1145760	ShowFixation	ANTI	49	3	False	red	600	[ 90 570 405 675]	[1350 1830  405  675]
367.623	0.2	1145760	1145995	BlankScreen	ANTI	49	3	False	red	600	[ 90 570 405 675]	[1350 1830  405  675]
367.858	1.0	1145995	1146995	ELCue	ANTI	49	3	False	red	600	[ 90 570 405 675]	[1350 1830  405  675]
369.36	2.0	1147497	1149530	ShowFixation	VGS	50	3	False	lime	600	[1350 1830  405  675]	[ 90 570 405 675]
371.393	0.2	1149530	1149765	BlankScreen	VGS	50	3	False	lime	600	[1350 1830  405  675]	[ 90 570 405 675]
371.628	1.0	1149765	1150765	ELCue	VGS	50	3	False	lime	600	[1350 1830  405  675]	[ 90 570 405 675]
373.038	6.0	1151175	1157200	ShowFixation	VGS	51	3	False	lime	40	[ 90 570 405 675]	[1350 1830  405  675]
379.063	0.2	1157200	1157440	BlankScreen	VGS	51	3	False	lime	40	[ 90 570 405 675]	[1350 1830  405  675]
379.303	1.0	1157440	1158440	ELCue	VGS	51	3	False	lime	40	[ 90 570 405 675]	[1350 1830  405  675]
380.709	2.0	1158846	1160875	ShowFixation	ANTI	52	3	False	red	40	[1350 1830  405  675]	[ 90 570 405 675]
382.738	0.2	1160875	1161110	BlankScreen	ANTI	52	3	False	red	40	[1350 1830  405  675]	[ 90 570 405 675]
382.973	1.0	1161110	1162110	ELCue	ANTI	52	3	False	red	40	[1350 1830  405  675]	[ 90 570 405 675]
384.379	2.0	1162516	1164545	ShowFixation	VGS	53	3	False	lime	40	[ 90 570 405 675]	[1350 1830  405  675]
386.408	0.2	1164545	1164780	BlankScreen	VGS	53	3	False	lime	40	[ 90 570 405 675]	[1350 1830  405  675]
386.643	1.0	1164780	1165780	ELCue	VGS	53	3	False	lime	40	[ 90 570 405 675]	[1350 1830  405  675]
388.052	6.0	1166189	1172215	ShowFixation	VGS	54	3	False	lime	180	[405 885 405 675]	[1035 1515  405  675]
394.078	0.2	1172215	1172454	BlankScreen	VGS	54	3	False	lime	180	[405 885 405 675]	[1035 1515  405  675]
394.317	1.0	1172454	1173454	ELCue	VGS	54	3	False	lime	180	[405 885 405 675]	[1035 1515  405  675]
395.724	6.0	1173861	1179889	ShowFixation	ANTI	55	3	False	red	600	[ 90 570 405 675]	[1350 1830  405  675]
401.752	0.2	1179889	1180129	BlankScreen	ANTI	55	3	False	red	600	[ 90 570 405 675]	[1350 1830  405  675]
401.992	1.0	1180129	1181129	ELCue	ANTI	55	3	False	red	600	[ 90 570 405 675]	[1350 1830  405  675]
403.393	6.0	1181530	1187564	ShowFixation	ANTI	56	3	False	red	600	[ 90 570 405 675]	[1350 1830  405  675]
409.427	0.2	1187564	1187803	BlankScreen	ANTI	56	3	False	red	600	[ 90 570 405 675]	[1350 1830  405  675]
409.666	1.0	1187803	1188803	ELCue	ANTI	56	3	False	red	600	[ 90 570 405 675]	[1350 1830  405  675]
411.067	6.0	1189204	1195238	ShowFixation	ANTI	57	3	False	red	40	[1350 1830  405  675]	[ 90 570 405 675]
417.101	0.2	1195238	1195477	BlankScreen	ANTI	57	3	False	red	40	[1350 1830  405  675]	[ 90 570 405 675]
417.34	1.0	1195477	1196477	ELCue	ANTI	57	3	False	red	40	[1350 1830  405  675]	[ 90 570 405 675]
418.744	6.0	1196881	1202912	ShowFixation	ANTI	58	3	False	red	180	[1035 1515  405  675]	[405 885 405 675]
424.775	0.2	1202912	1203151	BlankScreen	ANTI	58	3	False	red	180	[1035 1515  405  675]	[405 885 405 675]
425.014	1.0	1203151	1204151	ELCue	ANTI	58	3	False	red	180	[1035 1515  405  675]	[405 885 405 675]
426.417	2.0	1204554	1206586	ShowFixation	ANTI	59	3	False	red	40	[1350 1830  405  675]	[ 90 570 405 675]
428.449	0.2	1206586	1206822	BlankScreen	ANTI	59	3	False	red	40	[1350 1830  405  675]	[ 90 570 405 675]
428.685	1.0	1206822	1207822	ELCue	ANTI	59	3	False	red	40	[1350 1830  405  675]	[ 90 570 405 675]
430.093	6.0	1208230	1214257	ShowFixation	VGS	60	3	False	lime	600	[1350 1830  405  675]	[ 90 570 405 675]
436.12	0.2	1214257	1214496	BlankScreen	VGS	60	3	False	lime	600	[1350 1830  405  675]	[ 90 570 405 675]
436.359	1.0	1214496	1215496	ELCue	VGS	60	3	False	lime	600	[1350 1830  405  675]	[ 90 570 405 675]
437.768	2.0	1215905	1217931	ShowFixation	VGS	61	3	False	lime	180	[405 885 405 675]	[1035 1515  405  675]
439.795	0.2	1217932	1218166	BlankScreen	VGS	61	3	False	lime	180	[405 885 405 675]	[1035 1515  405  675]
440.029	1.0	1218166	1219166	ELCue	VGS	61	3	False	lime	180	[405 885 405 675]	[1035 1515  405  675]
441.435	2.0	1219572	1221601	ShowFixation	VGS	62	3	False	lime	460	[1035 1515  405  675]	[405 885 405 675]
443.465	0.2	1221602	1221838	BlankScreen	VGS	62	3	False	lime	460	[1035 1515  405  675]	[405 885 405 675]
443.701	1.0	1221838	1222838	ELCue	VGS	62	3	False	lime	460	[1035 1515  405  675]	[405 885 405 675]
445.107	6.0	1223244	1229272	ShowFixation	ANTI	63	3	False	red	460	[405 885 405 675]	[1035 1515  405  675]
451.135	0.2	1229272	1229512	BlankScreen	ANTI	63	3	False	red	460	[405 885 405 675]	[1035 1515  405  675]
451.375	1.0	1229512	1230512	ELCue	ANTI	63	3	False	red	460	[405 885 405 675]	[1035 1515  405  675]
452.783	2.0	1230920	1232947	ShowFixation	VGS	64	3	False	lime	460	[1035 1515  405  675]	[405 885 405 675]
454.81	0.2	1232947	1233182	BlankScreen	VGS	64	3	False	lime	460	[1035 1515  405  675]	[405 885 405 675]
455.045	1.0	1233182	1234182	ELCue	VGS	64	3	False	lime	460	[1035 1515  405  675]	[405 885 405 675]
456.456	6.0	1234593	1240634	ShowFixation	ANTI	65	3	False	red	460	[405 885 405 675]	[1035 1515  405  675]
462.497	0.2	1240634	1240873	BlankScreen	ANTI	65	3	False	red	460	[405 885 405 675]	[1035 1515  405  675]
462.736	1.0	1240873	1241873	ELCue	ANTI	65	3	False	red	460	[405 885 405 675]	[1035 1515  405  675]
464.144	6.0	1242281	1248308	ShowFixation	VGS	66	3	False	lime	460	[1035 1515  405  675]	[405 885 405 675]
470.171	0.2	1248308	1248547	BlankScreen	VGS	66	3	False	lime	460	[1035 1515  405  675]	[405 885 405 675]
470.41	1.0	1248547	1249547	ELCue	VGS	66	3	False	lime	460	[1035 1515  405  675]	[405 885 405 675]
471.814	2.0	1249951	1251982	ShowFixation	VGS	67	3	False	lime	600	[1350 1830  405  675]	[ 90 570 405 675]
473.845	0.2	1251982	1252217	BlankScreen	VGS	67	3	False	lime	600	[1350 1830  405  675]	[ 90 570 405 675]
474.08	1.0	1252217	1253217	ELCue	VGS	67	3	False	lime	600	[1350 1830  405  675]	[ 90 570 405 675]
475.483	6.0	1253620	1259652	ShowFixation	VGS	68	3	False	lime	40	[ 90 570 405 675]	[1350 1830  405  675]
481.515	0.2	1259652	1259892	BlankScreen	VGS	68	3	False	lime	40	[ 90 570 405 675]	[1350 1830  405  675]
481.755	1.0	1259892	1260892	ELCue	VGS	68	3	False	lime	40	[ 90 570 405 675]	[1350 1830  405  675]
483.201	6.0	1261338	1267377	ShowFixation	ANTI	69	3	False	red	180	[1035 1515  405  675]	[405 885 405 675]
489.24	0.2	1267377	1267616	BlankScreen	ANTI	69	3	False	red	180	[1035 1515  405  675]	[405 885 405 675]
489.479	1.0	1267616	1268616	ELCue	ANTI	69	3	False	red	180	[1035 1515  405  675]	[405 885 405 675]
490.886	6.0	1269023	1275051	ShowFixation	VGS	70	3	False	lime	180	[405 885 405 675]	[1035 1515  405  675]
496.914	0.2	1275051	1275290	BlankScreen	VGS	70	3	False	lime	180	[405 885 405 675]	[1035 1515  405  675]
497.153	1.0	1275290	1276290	ELCue	VGS	70	3	False	lime	180	[405 885 405 675]	[1035 1515  405  675]
498.559	2.0	1276696	1278725	ShowFixation	ANTI	71	3	False	red	600	[ 90 570 405 675]	[1350 1830  405  675]
500.588	0.2	1278725	1278961	BlankScreen	ANTI	71	3	False	red	600	[ 90 570 405 675]	[1350 1830  405  675]
500.824	1.0	1278961	1279961	ELCue	ANTI	71	3	False	red	600	[ 90 570 405 675]	[1350 1830  405  675]
502.232	2.0	1280369	1282396	ShowFixation	VGS	72	3	False	lime	180	[405 885 405 675]	[1035 1515  405  675]
504.259	0.2	1282396	1282631	BlankScreen	VGS	72	3	False	lime	180	[405 885 405 675]	[1035 1515  405  675]
504.494	1.0	1282631	1283631	ELCue	VGS	72	3	False	lime	180	[405 885 405 675]	[1035 1515  405  675]
505.9	2.0	1284037	1286066	ShowFixation	ANTI	73	3	False	red	460	[405 885 405 675]	[1035 1515  405  675]
507.929	0.2	1286066	1286301	BlankScreen	ANTI	73	3	False	red	460	[405 885 405 675]	[1035 1515  405  675]
508.164	1.0	1286301	1287301	ELCue	ANTI	73	3	False	red	460	[405 885 405 675]	[1035 1515  405  675]
509.572	2.0	1287709	1289736	ShowFixation	VGS	74	3	False	lime	40	[ 90 570 405 675]	[1350 1830  405  675]
511.599	0.2	1289736	1289971	BlankScreen	VGS	74	3	False	lime	40	[ 90 570 405 675]	[1350 1830  405  675]
511.834	1.0	1289971	1290971	ELCue	VGS	74	3	False	lime	40	[ 90 570 405 675]	[1350 1830  405  675]
513.24	6.0	1291377	1297406	ShowFixation	ANTI	75	3	False	red	40	[1350 1830  405  675]	[ 90 570 405 675]
519.269	0.2	1297406	1297646	BlankScreen	ANTI	75	3	False	red	40	[1350 1830  405  675]	[ 90 570 405 675]
519.509	1.0	1297646	1298646	ELCue	ANTI	75	3	False	red	40	[1350 1830  405  675]	[ 90 570 405 675]
520.911	6.0	1299048	1305081	ShowFixation	VGS	76	3	False	lime	600	[1350 1830  405  675]	[ 90 570 405 675]
526.944	0.2	1305081	1305320	BlankScreen	VGS	76	3	False	lime	600	[1350 1830  405  675]	[ 90 570 405 675]
527.183	1.0	1305320	1306320	ELCue	VGS	76	3	False	lime	600	[1350 1830  405  675]	[ 90 570 405 675]
528.589	2.0	1306726	1308755	ShowFixation	ANTI	77	3	False	red	180	[1035 1515  405  675]	[405 885 405 675]
530.618	0.2	1308755	1308990	BlankScreen	ANTI	77	3	False	red	180	[1035 1515  405  675]	[405 885 405 675]
530.853	1.0	1308990	1309990	ELCue	ANTI	77	3	False	red	180	[1035 1515  405  675]	[405 885 405 675]
532.253	6.0	1310390	1316425	ShowFixation	VGS	78	3	False	lime	460	[1035 1515  405  675]	[405 885 405 675]
538.288	0.2	1316425	1316664	BlankScreen	VGS	78	3	False	lime	460	[1035 1515  405  675]	[405 885 405 675]
538.527	1.0	1316664	1317664	ELCue	VGS	78	3	False	lime	460	[1035 1515  405  675]	[405 885 405 675]
539.936	2.0	1318073	1320099	ShowFixation	ANTI	79	3	False	red	460	[405 885 405 675]	[1035 1515  405  675]
541.962	0.2	1320099	1320335	BlankScreen	ANTI	79	3	False	red	460	[405 885 405 675]	[1035 1515  405  675]
542.198	1.0	1320335	1321335	ELCue	ANTI	79	3	False	red	460	[405 885 405 675]	[1035 1515  405  675]
543.6	2.0	1321737	1323770	ShowFixation	ANTI	80	3	False	red	180	[1035 1515  405  675]	[405 885 405 675]
545.633	0.2	1323770	1324005	BlankScreen	ANTI	80	3	False	red	180	[1035 1515  405  675]	[405 885 405 675]
545.868	1.0	1324005	1325005	ELCue	ANTI	80	3	False	red	180	[1035 1515  405  675]	[405 885 405 675]
556.522	6.0	1334659	1340700	ShowFixation	VGS	81	4	False	lime	460	[1035 1515  405  675]	[405 885 405 675]
562.563	0.2	1340700	1340939	BlankScreen	VGS	81	4	False	lime	460	[1035 1515  405  675]	[405 885 405 675]
562.802	1.0	1340939	1341939	ELCue	VGS	81	4	False	lime	460	[1035 1515  405  675]	[405 885 405 675]
564.211	6.0	1342348	1348374	ShowFixation	ANTI	82	4	False	red	180	[1035 1515  405  675]	[405 885 405 675]
570.237	0.2	1348374	1348614	BlankScreen	ANTI	82	4	False	red	180	[1035 1515  405  675]	[405 885 405 675]
570.477	1.0	1348614	1349614	ELCue	ANTI	82	4	False	red	180	[1035 1515  405  675]	[405 885 405 675]
571.865	2.0	1350002	1352032	ShowFixation	VGS	83	4	False	lime	460	[1035 1515  405  675]	[405 885 405 675]
573.895	0.2	1352032	1352267	BlankScreen	VGS	83	4	False	lime	460	[1035 1515  405  675]	[405 885 405 675]
574.13	1.0	1352267	1353267	ELCue	VGS	83	4	False	lime	460	[1035 1515  405  675]	[405 885 405 675]
575.539	6.0	1353676	1359702	ShowFixation	ANTI	84	4	False	red	460	[405 885 405 675]	[1035 1515  405  675]
581.565	0.2	1359702	1359941	BlankScreen	ANTI	84	4	False	red	460	[405 885 405 675]	[1035 1515  405  675]
581.804	1.0	1359941	1360941	ELCue	ANTI	84	4	False	red	460	[405 885 405 675]	[1035 1515  405  675]
583.213	6.0	1361350	1367376	ShowFixation	ANTI	85	4	False	red	40	[1350 1830  405  675]	[ 90 570 405 675]
589.239	0.2	1367376	1367616	BlankScreen	ANTI	85	4	False	red	40	[1350 1830  405  675]	[ 90 570 405 675]
589.479	1.0	1367616	1368616	ELCue	ANTI	85	4	False	red	40	[1350 1830  405  675]	[ 90 570 405 675]
590.873	2.0	1369010	1371051	ShowFixation	ANTI	86	4	False	red	600	[ 90 570 405 675]	[1350 1830  405  675]
592.914	0.2	1371051	1371286	BlankScreen	ANTI	86	4	False	red	600	[ 90 570 405 675]	[1350 1830  405  675]
593.149	1.0	1371286	1372286	ELCue	ANTI	86	4	False	red	600	[ 90 570 405 675]	[1350 1830  405  675]
594.541	6.0	1372678	1378704	ShowFixation	ANTI	87	4	False	red	600	[ 90 570 405 675]	[1350 1830  405  675]
600.567	0.2	1378704	1378944	BlankScreen	ANTI	87	4	False	red	600	[ 90 570 405 675]	[1350 1830  405  675]
600.807	1.0	1378944	1379944	ELCue	ANTI	87	4	False	red	600	[ 90 570 405 675]	[1350 1830  405  675]
602.215	6.0	1380352	1386378	ShowFixation	ANTI	88	4	False	red	180	[1035 1515  405  675]	[405 885 405 675]
608.241	0.2	1386378	1386618	BlankScreen	ANTI	88	4	False	red	180	[1035 1515  405  675]	[405 885 405 675]
608.481	1.0	1386618	1387618	ELCue	ANTI	88	4	False	red	180	[1035 1515  405  675]	[405 885 405 675]
609.89	6.0	1388027	1394053	ShowFixation	VGS	89	4	False	lime	40	[ 90 570 405 675]	[1350 1830  405  675]
615.916	0.2	1394053	1394292	BlankScreen	VGS	89	4	False	lime	40	[ 90 570 405 675]	[1350 1830  405  675]
616.155	1.0	1394292	1395292	ELCue	VGS	89	4	False	lime	40	[ 90 570 405 675]	[1350 1830  405  675]
617.564	2.0	1395701	1397727	ShowFixation	VGS	90	4	False	lime	40	[ 90 570 405 675]	[1350 1830  405  675]
619.59	0.2	1397727	1397962	BlankScreen	VGS	90	4	False	lime	40	[ 90 570 405 675]	[1350 1830  405  675]
619.825	1.0	1397962	1398962	ELCue	VGS	90	4	False	lime	40	[ 90 570 405 675]	[1350 1830  405  675]
621.233	2.0	1399370	1401397	ShowFixation	ANTI	91	4	False	red	180	[1035 1515  405  675]	[405 885 405 675]
623.26	0.2	1401397	1401633	BlankScreen	ANTI	91	4	False	red	180	[1035 1515  405  675]	[405 885 405 675]
623.496	1.0	1401633	1402633	ELCue	ANTI	91	4	False	red	180	[1035 1515  405  675]	[405 885 405 675]
624.908	6.0	1403045	1409084	ShowFixation	ANTI	92	4	False	red	600	[ 90 570 405 675]	[1350 1830  405  675]
630.947	0.2	1409084	1409323	BlankScreen	ANTI	92	4	False	red	600	[ 90 570 405 675]	[1350 1830  405  675]
631.186	1.0	1409323	1410323	ELCue	ANTI	92	4	False	red	600	[ 90 570 405 675]	[1350 1830  405  675]
632.595	2.0	1410732	1412758	ShowFixation	VGS	93	4	False	lime	40	[ 90 570 405 675]	[1350 1830  405  675]
634.621	0.2	1412758	1412994	BlankScreen	VGS	93	4	False	lime	40	[ 90 570 405 675]	[1350 1830  405  675]
634.857	1.0	1412994	1413994	ELCue	VGS	93	4	False	lime	40	[ 90 570 405 675]	[1350 1830  405  675]
636.26	2.0	1414397	1416429	ShowFixation	ANTI	94	4	False	red	40	[1350 1830  405  675]	[ 90 570 405 675]
638.292	0.2	1416429	1416664	BlankScreen	ANTI	94	4	False	red	40	[1350 1830  405  675]	[ 90 570 405 675]
638.527	1.0	1416664	1417664	ELCue	ANTI	94	4	False	red	40	[1350 1830  405  675]	[ 90 570 405 675]
639.931	2.0	1418068	1420099	ShowFixation	ANTI	95	4	False	red	460	[405 885 405 675]	[1035 1515  405  675]
641.962	0.2	1420099	1420334	BlankScreen	ANTI	95	4	False	red	460	[405 885 405 675]	[1035 1515  405  675]
642.197	1.0	1420334	1421334	ELCue	ANTI	95	4	False	red	460	[405 885 405 675]	[1035 1515  405  675]
643.607	2.0	1421744	1423769	ShowFixation	ANTI	96	4	False	red	460	[405 885 405 675]	[1035 1515  405  675]
645.632	0.2	1423769	1424005	BlankScreen	ANTI	96	4	False	red	460	[405 885 405 675]	[1035 1515  405  675]
645.868	1.0	1424005	1425005	ELCue	ANTI	96	4	False	red	460	[405 885 405 675]	[1035 1515  405  675]
647.273	6.0	1425410	1431440	ShowFixation	VGS	97	4	False	lime	180	[405 885 405 675]	[1035 1515  405  675]
653.303	0.2	1431440	1431679	BlankScreen	VGS	97	4	False	lime	180	[405 885 405 675]	[1035 1515  405  675]
653.542	1.0	1431679	1432679	ELCue	VGS	97	4	False	lime	180	[405 885 405 675]	[1035 1515  405  675]
654.945	2.0	1433082	1435114	ShowFixation	VGS	98	4	False	lime	460	[1035 1515  405  675]	[405 885 405 675]
656.977	0.2	1435114	1435349	BlankScreen	VGS	98	4	False	lime	460	[1035 1515  405  675]	[405 885 405 675]
657.212	1.0	1435349	1436349	ELCue	VGS	98	4	False	lime	460	[1035 1515  405  675]	[405 885 405 675]
658.618	2.0	1436755	1438784	ShowFixation	ANTI	99	4	False	red	180	[1035 1515  405  675]	[405 885 405 675]
660.647	0.2	1438784	1439019	BlankScreen	ANTI	99	4	False	red	180	[1035 1515  405  675]	[405 885 405 675]
660.882	1.0	1439019	1440019	ELCue	ANTI	99	4	False	red	180	[1035 1515  405  675]	[405 885 405 675]
662.288	2.0	1440425	1442454	ShowFixation	VGS	100	4	False	lime	180	[405 885 405 675]	[1035 1515  405  675]
664.317	0.2	1442454	1442690	BlankScreen	VGS	100	4	False	lime	180	[405 885 405 675]	[1035 1515  405  675]
664.553	1.0	1442690	1443690	ELCue	VGS	100	4	False	lime	180	[405 885 405 675]	[1035 1515  405  675]
665.961	6.0	1444098	1450125	ShowFixation	VGS	101	4	False	lime	40	[ 90 570 405 675]	[1350 1830  405  675]
671.989	0.2	1450126	1450365	BlankScreen	VGS	101	4	False	lime	40	[ 90 570 405 675]	[1350 1830  405  675]
672.228	1.0	1450365	1451365	ELCue	VGS	101	4	False	lime	40	[ 90 570 405 675]	[1350 1830  405  675]
673.638	6.0	1451775	1457800	ShowFixation	ANTI	102	4	False	red	40	[1350 1830  405  675]	[ 90 570 405 675]
679.663	0.2	1457800	1458039	BlankScreen	ANTI	102	4	False	red	40	[1350 1830  405  675]	[ 90 570 405 675]
679.902	1.0	1458039	1459039	ELCue	ANTI	102	4	False	red	40	[1350 1830  405  675]	[ 90 570 405 675]
681.306	6.0	1459443	1465474	ShowFixation	VGS	103	4	False	lime	600	[1350 1830  405  675]	[ 90 570 405 675]
687.337	0.2	1465474	1465713	BlankScreen	VGS	103	4	False	lime	600	[1350 1830  405  675]	[ 90 570 405 675]
687.576	1.0	1465713	1466713	ELCue	VGS	103	4	False	lime	600	[1350 1830  405  675]	[ 90 570 405 675]
688.97	2.0	1467107	1469132	ShowFixation	VGS	104	4	False	lime	600	[1350 1830  405  675]	[ 90 570 405 675]
690.995	0.2	1469132	1469367	BlankScreen	VGS	104	4	False	lime	600	[1350 1830  405  675]	[ 90 570 405 675]
691.23	1.0	1469367	1470367	ELCue	VGS	104	4	False	lime	600	[1350 1830  405  675]	[ 90 570 405 675]
692.634	2.0	1470771	1472802	ShowFixation	ANTI	105	4	False	red	600	[ 90 570 405 675]	[1350 1830  405  675]
694.665	0.2	1472802	1473037	BlankScreen	ANTI	105	4	False	red	600	[ 90 570 405 675]	[1350 1830  405  675]
694.9	1.0	1473037	1474037	ELCue	ANTI	105	4	False	red	600	[ 90 570 405 675]	[1350 1830  405  675]
696.308	6.0	1474445	1480472	ShowFixation	VGS	106	4	False	lime	460	[1035 1515  405  675]	[405 885 405 675]
702.335	0.2	1480472	1480712	BlankScreen	VGS	106	4	False	lime	460	[1035 1515  405  675]	[405 885 405 675]
702.575	1.0	1480712	1481712	ELCue	VGS	106	4	False	lime	460	[1035 1515  405  675]	[405 885 405 675]
703.982	6.0	1482119	1488147	ShowFixation	VGS	107	4	False	lime	180	[405 885 405 675]	[1035 1515  405  675]
710.01	0.2	1488147	1488386	BlankScreen	VGS	107	4	False	lime	180	[405 885 405 675]	[1035 1515  405  675]
710.249	1.0	1488386	1489386	ELCue	VGS	107	4	False	lime	180	[405 885 405 675]	[1035 1515  405  675]
711.636	6.0	1489773	1495804	ShowFixation	ANTI	108	4	False	red	460	[405 885 405 675]	[1035 1515  405  675]
717.667	0.2	1495804	1496043	BlankScreen	ANTI	108	4	False	red	460	[405 885 405 675]	[1035 1515  405  675]
717.906	1.0	1496043	1497043	ELCue	ANTI	108	4	False	red	460	[405 885 405 675]	[1035 1515  405  675]
719.313	6.0	1497450	1503478	ShowFixation	VGS	109	4	False	lime	600	[1350 1830  405  675]	[ 90 570 405 675]
725.341	0.2	1503478	1503718	BlankScreen	VGS	109	4	False	lime	600	[1350 1830  405  675]	[ 90 570 405 675]
725.581	1.0	1503718	1504718	ELCue	VGS	109	4	False	lime	600	[1350 1830  405  675]	[ 90 570 405 675]
726.987	2.0	1505124	1507153	ShowFixation	ANTI	110	4	False	red	40	[1350 1830  405  675]	[ 90 570 405 675]
729.016	0.2	1507153	1507388	BlankScreen	ANTI	110	4	False	red	40	[1350 1830  405  675]	[ 90 570 405 675]
729.251	1.0	1507388	1508388	ELCue	ANTI	110	4	False	red	40	[1350 1830  405  675]	[ 90 570 405 675]
730.627	2.0	1508764	1510789	ShowFixation	VGS	111	4	False	lime	180	[405 885 405 675]	[1035 1515  405  675]
732.652	0.2	1510789	1511025	BlankScreen	VGS	111	4	False	lime	180	[405 885 405 675]	[1035 1515  405  675]
732.888	1.0	1511025	1512025	ELCue	VGS	111	4	False	lime	180	[405 885 405 675]	[1035 1515  405  675]
734.294	2.0	1512431	1514460	ShowFixation	VGS	112	4	False	lime	600	[1350 1830  405  675]	[ 90 570 405 675]
736.323	0.2	1514460	1514695	BlankScreen	VGS	112	4	False	lime	600	[1350 1830  405  675]	[ 90 570 405 675]
736.558	1.0	1514695	1515695	ELCue	VGS	112	4	False	lime	600	[1350 1830  405  675]	[ 90 570 405 675]
