onset	duration	startTime	stopTime	eventIdentifier	trial_type	trial_number	block_number	is_practice	fixation_color	cue_side	aoi_correct	aoi_incorrect
0.146	2.0	3108088	3110120	ShowFixation	ANTI	1	1	True	red	180	[1035 1515  405  675]	[405 885 405 675]
2.178	0.2	3110120	3110355	BlankScreen	ANTI	1	1	True	red	180	[1035 1515  405  675]	[405 885 405 675]
2.413	1.0	3110355	3111395	ELCue	ANTI	1	1	True	red	180	[1035 1515  405  675]	[405 885 405 675]
3.857	2.0	3111799	3114424	ShowFixation	VGS	2	1	True	lime	600	[1350 1830  405  675]	[ 90 570 405 675]
6.482	0.2	3114424	3114643	BlankScreen	VGS	2	1	True	lime	600	[1350 1830  405  675]	[ 90 570 405 675]
6.701	1.0	3114643	3115666	ELCue	VGS	2	1	True	lime	600	[1350 1830  405  675]	[ 90 570 405 675]
8.129	2.0	3116071	3118712	ShowFixation	VGS	3	1	True	lime	460	[1035 1515  405  675]	[405 885 405 675]
10.77	0.2	3118712	3118947	BlankScreen	VGS	3	1	True	lime	460	[1035 1515  405  675]	[405 885 405 675]
11.005	1.0	3118947	3119988	ELCue	VGS	3	1	True	lime	460	[1035 1515  405  675]	[405 885 405 675]
12.449	2.0	3120391	3123032	ShowFixation	ANTI	4	1	True	red	40	[1350 1830  405  675]	[ 90 570 405 675]
15.09	0.2	3123032	3123268	BlankScreen	ANTI	4	1	True	red	40	[1350 1830  405  675]	[ 90 570 405 675]
15.326	1.0	3123268	3124314	ELCue	ANTI	4	1	True	red	40	[1350 1830  405  675]	[ 90 570 405 675]
16.789	6.0	3124731	3131370	ShowFixation	ANTI	5	1	True	red	180	[1035 1515  405  675]	[405 885 405 675]
23.428	0.2	3131370	3131609	BlankScreen	ANTI	5	1	True	red	180	[1035 1515  405  675]	[405 885 405 675]
23.667	1.0	3131609	3132650	ELCue	ANTI	5	1	True	red	180	[1035 1515  405  675]	[405 885 405 675]
25.112	6.0	3133054	3139695	ShowFixation	VGS	6	1	True	lime	460	[1035 1515  405  675]	[405 885 405 675]
31.753	0.2	3139695	3139934	BlankScreen	VGS	6	1	True	lime	460	[1035 1515  405  675]	[405 885 405 675]
31.992	1.0	3139934	3140974	ELCue	VGS	6	1	True	lime	460	[1035 1515  405  675]	[405 885 405 675]
33.438	6.0	3141380	3148003	ShowFixation	ANTI	7	1	True	red	600	[ 90 570 405 675]	[1350 1830  405  675]
40.061	0.2	3148003	3148242	BlankScreen	ANTI	7	1	True	red	600	[ 90 570 405 675]	[1350 1830  405  675]
40.3	1.0	3148242	3149280	ELCue	ANTI	7	1	True	red	600	[ 90 570 405 675]	[1350 1830  405  675]
41.728	6.0	3149670	3156328	ShowFixation	ANTI	8	1	True	red	40	[1350 1830  405  675]	[ 90 570 405 675]
48.386	0.2	3156328	3156567	BlankScreen	ANTI	8	1	True	red	40	[1350 1830  405  675]	[ 90 570 405 675]
48.625	1.0	3156567	3157605	ELCue	ANTI	8	1	True	red	40	[1350 1830  405  675]	[ 90 570 405 675]
50.072	2.0	3158014	3160653	ShowFixation	ANTI	9	1	True	red	460	[405 885 405 675]	[1035 1515  405  675]
52.711	0.2	3160653	3160888	BlankScreen	ANTI	9	1	True	red	460	[405 885 405 675]	[1035 1515  405  675]
52.946	1.0	3160888	3161929	ELCue	ANTI	9	1	True	red	460	[405 885 405 675]	[1035 1515  405  675]
54.372	2.0	3162314	3164974	ShowFixation	VGS	10	1	True	lime	180	[405 885 405 675]	[1035 1515  405  675]
57.032	0.2	3164974	3165209	BlankScreen	VGS	10	1	True	lime	180	[405 885 405 675]	[1035 1515  405  675]
57.267	1.0	3165209	3166250	ELCue	VGS	10	1	True	lime	180	[405 885 405 675]	[1035 1515  405  675]
58.715	2.0	3166657	3169295	ShowFixation	VGS	11	1	True	lime	40	[ 90 570 405 675]	[1350 1830  405  675]
61.353	0.2	3169295	3169530	BlankScreen	VGS	11	1	True	lime	40	[ 90 570 405 675]	[1350 1830  405  675]
61.588	1.0	3169530	3170571	ELCue	VGS	11	1	True	lime	40	[ 90 570 405 675]	[1350 1830  405  675]
63.018	6.0	3170960	3177616	ShowFixation	VGS	12	1	True	lime	600	[1350 1830  405  675]	[ 90 570 405 675]
69.674	0.2	3177616	3177855	BlankScreen	VGS	12	1	True	lime	600	[1350 1830  405  675]	[ 90 570 405 675]
69.913	1.0	3177855	3178896	ELCue	VGS	12	1	True	lime	600	[1350 1830  405  675]	[ 90 570 405 675]
71.361	2.0	3179303	3181941	ShowFixation	ANTI	13	1	True	red	600	[ 90 570 405 675]	[1350 1830  405  675]
73.999	0.2	3181941	3182176	BlankScreen	ANTI	13	1	True	red	600	[ 90 570 405 675]	[1350 1830  405  675]
74.234	1.0	3182176	3183216	ELCue	ANTI	13	1	True	red	600	[ 90 570 405 675]	[1350 1830  405  675]
75.678	6.0	3183620	3190245	ShowFixation	VGS	14	1	True	lime	40	[ 90 570 405 675]	[1350 1830  405  675]
82.303	0.2	3190245	3190484	BlankScreen	VGS	14	1	True	lime	40	[ 90 570 405 675]	[1350 1830  405  675]
82.542	1.0	3190484	3191525	ELCue	VGS	14	1	True	lime	40	[ 90 570 405 675]	[1350 1830  405  675]
83.985	6.0	3191927	3198554	ShowFixation	VGS	15	1	True	lime	180	[405 885 405 675]	[1035 1515  405  675]
90.612	0.2	3198554	3198792	BlankScreen	VGS	15	1	True	lime	180	[405 885 405 675]	[1035 1515  405  675]
90.85	1.0	3198792	3199834	ELCue	VGS	15	1	True	lime	180	[405 885 405 675]	[1035 1515  405  675]
92.293	6.0	3200235	3206878	ShowFixation	ANTI	16	1	True	red	460	[405 885 405 675]	[1035 1515  405  675]
98.936	0.2	3206878	3207117	BlankScreen	ANTI	16	1	True	red	460	[405 885 405 675]	[1035 1515  405  675]
99.175	1.0	3207117	3208158	ELCue	ANTI	16	1	True	red	460	[405 885 405 675]	[1035 1515  405  675]
134.123	6.0	3242065	3248103	ShowFixation	VGS	17	2	False	lime	40	[ 90 570 405 675]	[1350 1830  405  675]
140.161	0.2	3248103	3248342	BlankScreen	VGS	17	2	False	lime	40	[ 90 570 405 675]	[1350 1830  405  675]
140.4	1.0	3248342	3249342	ELCue	VGS	17	2	False	lime	40	[ 90 570 405 675]	[1350 1830  405  675]
141.806	2.0	3249748	3251777	ShowFixation	ANTI	18	2	False	red	180	[1035 1515  405  675]	[405 885 405 675]
143.835	0.2	3251777	3252012	BlankScreen	ANTI	18	2	False	red	180	[1035 1515  405  675]	[405 885 405 675]
144.07	1.0	3252012	3253012	ELCue	ANTI	18	2	False	red	180	[1035 1515  405  675]	[405 885 405 675]
145.48	2.0	3253422	3255447	ShowFixation	ANTI	19	2	False	red	40	[1350 1830  405  675]	[ 90 570 405 675]
147.505	0.2	3255447	3255683	BlankScreen	ANTI	19	2	False	red	40	[1350 1830  405  675]	[ 90 570 405 675]
147.741	1.0	3255683	3256683	ELCue	ANTI	19	2	False	red	40	[1350 1830  405  675]	[ 90 570 405 675]
149.152	2.0	3257094	3259134	ShowFixation	VGS	20	2	False	lime	600	[1350 1830  405  675]	[ 90 570 405 675]
151.192	0.2	3259134	3259370	BlankScreen	VGS	20	2	False	lime	600	[1350 1830  405  675]	[ 90 570 405 675]
151.428	1.0	3259370	3260370	ELCue	VGS	20	2	False	lime	600	[1350 1830  405  675]	[ 90 570 405 675]
152.835	6.0	3260777	3266805	ShowFixation	ANTI	21	2	False	red	40	[1350 1830  405  675]	[ 90 570 405 675]
158.863	0.2	3266805	3267044	BlankScreen	ANTI	21	2	False	red	40	[1350 1830  405  675]	[ 90 570 405 675]
159.102	1.0	3267044	3268044	ELCue	ANTI	21	2	False	red	40	[1350 1830  405  675]	[ 90 570 405 675]
160.511	2.0	3268453	3270479	ShowFixation	VGS	22	2	False	lime	600	[1350 1830  405  675]	[ 90 570 405 675]
162.537	0.2	3270479	3270714	BlankScreen	VGS	22	2	False	lime	600	[1350 1830  405  675]	[ 90 570 405 675]
162.772	1.0	3270714	3271714	ELCue	VGS	22	2	False	lime	600	[1350 1830  405  675]	[ 90 570 405 675]
164.181	6.0	3272123	3278149	ShowFixation	ANTI	23	2	False	red	460	[405 885 405 675]	[1035 1515  405  675]
170.207	0.2	3278149	3278389	BlankScreen	ANTI	23	2	False	red	460	[405 885 405 675]	[1035 1515  405  675]
170.447	1.0	3278389	3279389	ELCue	ANTI	23	2	False	red	460	[405 885 405 675]	[1035 1515  405  675]
171.85	6.0	3279792	3285823	ShowFixation	VGS	24	2	False	lime	460	[1035 1515  405  675]	[405 885 405 675]
177.881	0.2	3285823	3286063	BlankScreen	VGS	24	2	False	lime	460	[1035 1515  405  675]	[405 885 405 675]
178.121	1.0	3286063	3287063	ELCue	VGS	24	2	False	lime	460	[1035 1515  405  675]	[405 885 405 675]
179.529	2.0	3287471	3289498	ShowFixation	ANTI	25	2	False	red	600	[ 90 570 405 675]	[1350 1830  405  675]
181.556	0.2	3289498	3289733	BlankScreen	ANTI	25	2	False	red	600	[ 90 570 405 675]	[1350 1830  405  675]
181.791	1.0	3289733	3290733	ELCue	ANTI	25	2	False	red	600	[ 90 570 405 675]	[1350 1830  405  675]
183.194	2.0	3291136	3293168	ShowFixation	VGS	26	2	False	lime	40	[ 90 570 405 675]	[1350 1830  405  675]
185.226	0.2	3293168	3293403	BlankScreen	VGS	26	2	False	lime	40	[ 90 570 405 675]	[1350 1830  405  675]
185.461	1.0	3293403	3294403	ELCue	VGS	26	2	False	lime	40	[ 90 570 405 675]	[1350 1830  405  675]
186.87	6.0	3294812	3300838	ShowFixation	ANTI	27	2	False	red	40	[1350 1830  405  675]	[ 90 570 405 675]
192.896	0.2	3300838	3301078	BlankScreen	ANTI	27	2	False	red	40	[1350 1830  405  675]	[ 90 570 405 675]
193.136	1.0	3301078	3302078	ELCue	ANTI	27	2	False	red	40	[1350 1830  405  675]	[ 90 570 405 675]
194.544	6.0	3302486	3308513	ShowFixation	VGS	28	2	False	lime	40	[ 90 570 405 675]	[1350 1830  405  675]
200.571	0.2	3308513	3308752	BlankScreen	VGS	28	2	False	lime	40	[ 90 570 405 675]	[1350 1830  405  675]
200.81	1.0	3308752	3309752	ELCue	VGS	28	2	False	lime	40	[ 90 570 405 675]	[1350 1830  405  675]
202.218	2.0	3310160	3312187	ShowFixation	ANTI	29	2	False	red	460	[405 885 405 675]	[1035 1515  405  675]
204.245	0.2	3312187	3312422	BlankScreen	ANTI	29	2	False	red	460	[405 885 405 675]	[1035 1515  405  675]
204.48	1.0	3312422	3313422	ELCue	ANTI	29	2	False	red	460	[405 885 405 675]	[1035 1515  405  675]
205.869	6.0	3313811	3319840	ShowFixation	ANTI	30	2	False	red	600	[ 90 570 405 675]	[1350 1830  405  675]
211.898	0.2	3319840	3320080	BlankScreen	ANTI	30	2	False	red	600	[ 90 570 405 675]	[1350 1830  405  675]
212.138	1.0	3320080	3321080	ELCue	ANTI	30	2	False	red	600	[ 90 570 405 675]	[1350 1830  405  675]
213.545	6.0	3321487	3327515	ShowFixation	VGS	31	2	False	lime	180	[405 885 405 675]	[1035 1515  405  675]
219.573	0.2	3327515	3327754	BlankScreen	VGS	31	2	False	lime	180	[405 885 405 675]	[1035 1515  405  675]
219.812	1.0	3327754	3328754	ELCue	VGS	31	2	False	lime	180	[405 885 405 675]	[1035 1515  405  675]
221.22	6.0	3329162	3335189	ShowFixation	ANTI	32	2	False	red	460	[405 885 405 675]	[1035 1515  405  675]
227.247	0.2	3335189	3335428	BlankScreen	ANTI	32	2	False	red	460	[405 885 405 675]	[1035 1515  405  675]
227.486	1.0	3335428	3336428	ELCue	ANTI	32	2	False	red	460	[405 885 405 675]	[1035 1515  405  675]
228.892	2.0	3336834	3338863	ShowFixation	ANTI	33	2	False	red	600	[ 90 570 405 675]	[1350 1830  405  675]
230.921	0.2	3338863	3339098	BlankScreen	ANTI	33	2	False	red	600	[ 90 570 405 675]	[1350 1830  405  675]
231.156	1.0	3339098	3340098	ELCue	ANTI	33	2	False	red	600	[ 90 570 405 675]	[1350 1830  405  675]
232.565	2.0	3340507	3342534	ShowFixation	VGS	34	2	False	lime	460	[1035 1515  405  675]	[405 885 405 675]
234.592	0.2	3342534	3342769	BlankScreen	VGS	34	2	False	lime	460	[1035 1515  405  675]	[405 885 405 675]
234.827	1.0	3342769	3343769	ELCue	VGS	34	2	False	lime	460	[1035 1515  405  675]	[405 885 405 675]
236.22	2.0	3344162	3346187	ShowFixation	VGS	35	2	False	lime	180	[405 885 405 675]	[1035 1515  405  675]
238.245	0.2	3346187	3346422	BlankScreen	VGS	35	2	False	lime	180	[405 885 405 675]	[1035 1515  405  675]
238.48	1.0	3346422	3347422	ELCue	VGS	35	2	False	lime	180	[405 885 405 675]	[1035 1515  405  675]
239.886	2.0	3347828	3349857	ShowFixation	ANTI	36	2	False	red	460	[405 885 405 675]	[1035 1515  405  675]
241.915	0.2	3349857	3350093	BlankScreen	ANTI	36	2	False	red	460	[405 885 405 675]	[1035 1515  405  675]
242.151	1.0	3350093	3351093	ELCue	ANTI	36	2	False	red	460	[405 885 405 675]	[1035 1515  405  675]
243.522	2.0	3351464	3353494	ShowFixation	ANTI	37	2	False	red	180	[1035 1515  405  675]	[405 885 405 675]
245.552	0.2	3353494	3353729	BlankScreen	ANTI	37	2	False	red	180	[1035 1515  405  675]	[405 885 405 675]
245.787	1.0	3353729	3354729	ELCue	ANTI	37	2	False	red	180	[1035 1515  405  675]	[405 885 405 675]
247.2	2.0	3355142	3357181	ShowFixation	ANTI	38	2	False	red	40	[1350 1830  405  675]	[ 90 570 405 675]
249.239	0.2	3357181	3357417	BlankScreen	ANTI	38	2	False	red	40	[1350 1830  405  675]	[ 90 570 405 675]
249.475	1.0	3357417	3358417	ELCue	ANTI	38	2	False	red	40	[1350 1830  405  675]	[ 90 570 405 675]
250.851	6.0	3358793	3364819	ShowFixation	VGS	39	2	False	lime	600	[1350 1830  405  675]	[ 90 570 405 675]
256.877	0.2	3364819	3365058	BlankScreen	VGS	39	2	False	lime	600	[1350 1830  405  675]	[ 90 570 405 675]
257.116	1.0	3365058	3366058	ELCue	VGS	39	2	False	lime	600	[1350 1830  405  675]	[ 90 570 405 675]
258.524	6.0	3366466	3372493	ShowFixation	VGS	40	2	False	lime	180	[405 885 405 675]	[1035 1515  405  675]
264.551	0.2	3372493	3372733	BlankScreen	VGS	40	2	False	lime	180	[405 885 405 675]	[1035 1515  405  675]
264.791	1.0	3372733	3373733	ELCue	VGS	40	2	False	lime	180	[405 885 405 675]	[1035 1515  405  675]
266.198	2.0	3374140	3376168	ShowFixation	VGS	41	2	False	lime	460	[1035 1515  405  675]	[405 885 405 675]
268.226	0.2	3376168	3376403	BlankScreen	VGS	41	2	False	lime	460	[1035 1515  405  675]	[405 885 405 675]
268.461	1.0	3376403	3377403	ELCue	VGS	41	2	False	lime	460	[1035 1515  405  675]	[405 885 405 675]
269.868	6.0	3377810	3383838	ShowFixation	ANTI	42	2	False	red	180	[1035 1515  405  675]	[405 885 405 675]
275.896	0.2	3383838	3384077	BlankScreen	ANTI	42	2	False	red	180	[1035 1515  405  675]	[405 885 405 675]
276.135	1.0	3384077	3385077	ELCue	ANTI	42	2	False	red	180	[1035 1515  405  675]	[405 885 405 675]
277.542	6.0	3385484	3391512	ShowFixation	ANTI	43	2	False	red	600	[ 90 570 405 675]	[1350 1830  405  675]
283.57	0.2	3391512	3391751	BlankScreen	ANTI	43	2	False	red	600	[ 90 570 405 675]	[1350 1830  405  675]
283.809	1.0	3391751	3392751	ELCue	ANTI	43	2	False	red	600	[ 90 570 405 675]	[1350 1830  405  675]
285.219	2.0	3393161	3395186	ShowFixation	VGS	44	2	False	lime	180	[405 885 405 675]	[1035 1515  405  675]
287.244	0.2	3395186	3395422	BlankScreen	VGS	44	2	False	lime	180	[405 885 405 675]	[1035 1515  405  675]
287.48	1.0	3395422	3396422	ELCue	VGS	44	2	False	lime	180	[405 885 405 675]	[1035 1515  405  675]
288.889	6.0	3396831	3402857	ShowFixation	VGS	45	2	False	lime	600	[1350 1830  405  675]	[ 90 570 405 675]
294.915	0.2	3402857	3403096	BlankScreen	VGS	45	2	False	lime	600	[1350 1830  405  675]	[ 90 570 405 675]
295.154	1.0	3403096	3404096	ELCue	VGS	45	2	False	lime	600	[1350 1830  405  675]	[ 90 570 405 675]
296.563	2.0	3404505	3406531	ShowFixation	VGS	46	2	False	lime	40	[ 90 570 405 675]	[1350 1830  405  675]
298.589	0.2	3406531	3406766	BlankScreen	VGS	46	2	False	lime	40	[ 90 570 405 675]	[1350 1830  405  675]
298.824	1.0	3406766	3407766	ELCue	VGS	46	2	False	lime	40	[ 90 570 405 675]	[1350 1830  405  675]
300.232	6.0	3408174	3414201	ShowFixation	VGS	47	2	False	lime	460	[1035 1515  405  675]	[405 885 405 675]
306.259	0.2	3414201	3414440	BlankScreen	VGS	47	2	False	lime	460	[1035 1515  405  675]	[405 885 405 675]
306.498	1.0	3414440	3415440	ELCue	VGS	47	2	False	lime	460	[1035 1515  405  675]	[405 885 405 675]
307.901	6.0	3415843	3421875	ShowFixation	ANTI	48	2	False	red	180	[1035 1515  405  675]	[405 885 405 675]
313.933	0.2	3421875	3422115	BlankScreen	ANTI	48	2	False	red	180	[1035 1515  405  675]	[405 885 405 675]
314.173	1.0	3422115	3423115	ELCue	ANTI	48	2	False	red	180	[1035 1515  405  675]	[405 885 405 675]
414.69	2.0	3522632	3524665	ShowFixation	VGS	49	3	False	lime	600	[1350 1830  405  675]	[ 90 570 405 675]
416.723	0.2	3524665	3524900	BlankScreen	VGS	49	3	False	lime	600	[1350 1830  405  675]	[ 90 570 405 675]
416.958	1.0	3524900	3525900	ELCue	VGS	49	3	False	lime	600	[1350 1830  405  675]	[ 90 570 405 675]
418.348	2.0	3526290	3528319	ShowFixation	VGS	50	3	False	lime	40	[ 90 570 405 675]	[1350 1830  405  675]
420.377	0.2	3528319	3528554	BlankScreen	VGS	50	3	False	lime	40	[ 90 570 405 675]	[1350 1830  405  675]
420.612	1.0	3528554	3529554	ELCue	VGS	50	3	False	lime	40	[ 90 570 405 675]	[1350 1830  405  675]
422.015	6.0	3529957	3535989	ShowFixation	ANTI	51	3	False	red	180	[1035 1515  405  675]	[405 885 405 675]
428.047	0.2	3535989	3536228	BlankScreen	ANTI	51	3	False	red	180	[1035 1515  405  675]	[405 885 405 675]
428.286	1.0	3536228	3537228	ELCue	ANTI	51	3	False	red	180	[1035 1515  405  675]	[405 885 405 675]
429.667	6.0	3537609	3543646	ShowFixation	VGS	52	3	False	lime	180	[405 885 405 675]	[1035 1515  405  675]
435.704	0.2	3543646	3543886	BlankScreen	VGS	52	3	False	lime	180	[405 885 405 675]	[1035 1515  405  675]
435.944	1.0	3543886	3544886	ELCue	VGS	52	3	False	lime	180	[405 885 405 675]	[1035 1515  405  675]
437.352	6.0	3545294	3551321	ShowFixation	ANTI	53	3	False	red	180	[1035 1515  405  675]	[405 885 405 675]
443.379	0.2	3551321	3551560	BlankScreen	ANTI	53	3	False	red	180	[1035 1515  405  675]	[405 885 405 675]
443.618	1.0	3551560	3552560	ELCue	ANTI	53	3	False	red	180	[1035 1515  405  675]	[405 885 405 675]
445.029	2.0	3552971	3555012	ShowFixation	ANTI	54	3	False	red	600	[ 90 570 405 675]	[1350 1830  405  675]
447.07	0.2	3555012	3555247	BlankScreen	ANTI	54	3	False	red	600	[ 90 570 405 675]	[1350 1830  405  675]
447.305	1.0	3555247	3556247	ELCue	ANTI	54	3	False	red	600	[ 90 570 405 675]	[1350 1830  405  675]
448.714	6.0	3556656	3562682	ShowFixation	VGS	55	3	False	lime	40	[ 90 570 405 675]	[1350 1830  405  675]
454.74	0.2	3562682	3562921	BlankScreen	VGS	55	3	False	lime	40	[ 90 570 405 675]	[1350 1830  405  675]
454.979	1.0	3562921	3563921	ELCue	VGS	55	3	False	lime	40	[ 90 570 405 675]	[1350 1830  405  675]
456.387	2.0	3564329	3566356	ShowFixation	ANTI	56	3	False	red	40	[1350 1830  405  675]	[ 90 570 405 675]
458.414	0.2	3566356	3566591	BlankScreen	ANTI	56	3	False	red	40	[1350 1830  405  675]	[ 90 570 405 675]
458.649	1.0	3566591	3567591	ELCue	ANTI	56	3	False	red	40	[1350 1830  405  675]	[ 90 570 405 675]
460.054	2.0	3567996	3570026	ShowFixation	VGS	57	3	False	lime	180	[405 885 405 675]	[1035 1515  405  675]
462.084	0.2	3570026	3570262	BlankScreen	VGS	57	3	False	lime	180	[405 885 405 675]	[1035 1515  405  675]
462.32	1.0	3570262	3571262	ELCue	VGS	57	3	False	lime	180	[405 885 405 675]	[1035 1515  405  675]
463.729	6.0	3571671	3577697	ShowFixation	VGS	58	3	False	lime	600	[1350 1830  405  675]	[ 90 570 405 675]
469.755	0.2	3577697	3577936	BlankScreen	VGS	58	3	False	lime	600	[1350 1830  405  675]	[ 90 570 405 675]
469.994	1.0	3577936	3578936	ELCue	VGS	58	3	False	lime	600	[1350 1830  405  675]	[ 90 570 405 675]
471.404	6.0	3579346	3585371	ShowFixation	ANTI	59	3	False	red	600	[ 90 570 405 675]	[1350 1830  405  675]
477.429	0.2	3585371	3585610	BlankScreen	ANTI	59	3	False	red	600	[ 90 570 405 675]	[1350 1830  405  675]
477.668	1.0	3585610	3586610	ELCue	ANTI	59	3	False	red	600	[ 90 570 405 675]	[1350 1830  405  675]
479.079	6.0	3587021	3593045	ShowFixation	ANTI	60	3	False	red	460	[405 885 405 675]	[1035 1515  405  675]
485.103	0.2	3593045	3593285	BlankScreen	ANTI	60	3	False	red	460	[405 885 405 675]	[1035 1515  405  675]
485.343	1.0	3593285	3594285	ELCue	ANTI	60	3	False	red	460	[405 885 405 675]	[1035 1515  405  675]
486.754	6.0	3594696	3600736	ShowFixation	VGS	61	3	False	lime	180	[405 885 405 675]	[1035 1515  405  675]
492.794	0.2	3600736	3600975	BlankScreen	VGS	61	3	False	lime	180	[405 885 405 675]	[1035 1515  405  675]
493.033	1.0	3600975	3601975	ELCue	VGS	61	3	False	lime	180	[405 885 405 675]	[1035 1515  405  675]
494.443	6.0	3602385	3608410	ShowFixation	VGS	62	3	False	lime	460	[1035 1515  405  675]	[405 885 405 675]
500.468	0.2	3608410	3608650	BlankScreen	VGS	62	3	False	lime	460	[1035 1515  405  675]	[405 885 405 675]
500.708	1.0	3608650	3609650	ELCue	VGS	62	3	False	lime	460	[1035 1515  405  675]	[405 885 405 675]
502.116	2.0	3610058	3612085	ShowFixation	VGS	63	3	False	lime	180	[405 885 405 675]	[1035 1515  405  675]
504.143	0.2	3612085	3612320	BlankScreen	VGS	63	3	False	lime	180	[405 885 405 675]	[1035 1515  405  675]
504.378	1.0	3612320	3613320	ELCue	VGS	63	3	False	lime	180	[405 885 405 675]	[1035 1515  405  675]
505.788	2.0	3613730	3615755	ShowFixation	VGS	64	3	False	lime	460	[1035 1515  405  675]	[405 885 405 675]
507.813	0.2	3615755	3615990	BlankScreen	VGS	64	3	False	lime	460	[1035 1515  405  675]	[405 885 405 675]
508.048	1.0	3615990	3616990	ELCue	VGS	64	3	False	lime	460	[1035 1515  405  675]	[405 885 405 675]
509.456	2.0	3617398	3619425	ShowFixation	ANTI	65	3	False	red	600	[ 90 570 405 675]	[1350 1830  405  675]
511.483	0.2	3619425	3619661	BlankScreen	ANTI	65	3	False	red	600	[ 90 570 405 675]	[1350 1830  405  675]
511.719	1.0	3619661	3620661	ELCue	ANTI	65	3	False	red	600	[ 90 570 405 675]	[1350 1830  405  675]
513.111	6.0	3621053	3627079	ShowFixation	VGS	66	3	False	lime	40	[ 90 570 405 675]	[1350 1830  405  675]
519.137	0.2	3627079	3627318	BlankScreen	VGS	66	3	False	lime	40	[ 90 570 405 675]	[1350 1830  405  675]
519.376	1.0	3627318	3628318	ELCue	VGS	66	3	False	lime	40	[ 90 570 405 675]	[1350 1830  405  675]
520.784	2.0	3628726	3630753	ShowFixation	VGS	67	3	False	lime	460	[1035 1515  405  675]	[405 885 405 675]
522.811	0.2	3630753	3630988	BlankScreen	VGS	67	3	False	lime	460	[1035 1515  405  675]	[405 885 405 675]
523.046	1.0	3630988	3631988	ELCue	VGS	67	3	False	lime	460	[1035 1515  405  675]	[405 885 405 675]
524.435	2.0	3632377	3634407	ShowFixation	VGS	68	3	False	lime	40	[ 90 570 405 675]	[1350 1830  405  675]
526.465	0.2	3634407	3634642	BlankScreen	VGS	68	3	False	lime	40	[ 90 570 405 675]	[1350 1830  405  675]
526.7	1.0	3634642	3635642	ELCue	VGS	68	3	False	lime	40	[ 90 570 405 675]	[1350 1830  405  675]
528.104	2.0	3636046	3638077	ShowFixation	ANTI	69	3	False	red	40	[1350 1830  405  675]	[ 90 570 405 675]
530.136	0.2	3638078	3638312	BlankScreen	ANTI	69	3	False	red	40	[1350 1830  405  675]	[ 90 570 405 675]
530.37	1.0	3638312	3639312	ELCue	ANTI	69	3	False	red	40	[1350 1830  405  675]	[ 90 570 405 675]
531.779	6.0	3639721	3645747	ShowFixation	ANTI	70	3	False	red	460	[405 885 405 675]	[1035 1515  405  675]
537.806	0.2	3645748	3645987	BlankScreen	ANTI	70	3	False	red	460	[405 885 405 675]	[1035 1515  405  675]
538.045	1.0	3645987	3646987	ELCue	ANTI	70	3	False	red	460	[405 885 405 675]	[1035 1515  405  675]
539.417	6.0	3647359	3653389	ShowFixation	VGS	71	3	False	lime	460	[1035 1515  405  675]	[405 885 405 675]
545.447	0.2	3653389	3653628	BlankScreen	VGS	71	3	False	lime	460	[1035 1515  405  675]	[405 885 405 675]
545.686	1.0	3653628	3654628	ELCue	VGS	71	3	False	lime	460	[1035 1515  405  675]	[405 885 405 675]
547.093	6.0	3655035	3661063	ShowFixation	ANTI	72	3	False	red	40	[1350 1830  405  675]	[ 90 570 405 675]
553.121	0.2	3661063	3661303	BlankScreen	ANTI	72	3	False	red	40	[1350 1830  405  675]	[ 90 570 405 675]
553.361	1.0	3661303	3662303	ELCue	ANTI	72	3	False	red	40	[1350 1830  405  675]	[ 90 570 405 675]
554.765	2.0	3662707	3664738	ShowFixation	ANTI	73	3	False	red	460	[405 885 405 675]	[1035 1515  405  675]
556.796	0.2	3664738	3664973	BlankScreen	ANTI	73	3	False	red	460	[405 885 405 675]	[1035 1515  405  675]
557.031	1.0	3664973	3665973	ELCue	ANTI	73	3	False	red	460	[405 885 405 675]	[1035 1515  405  675]
558.439	6.0	3666381	3672408	ShowFixation	ANTI	74	3	False	red	600	[ 90 570 405 675]	[1350 1830  405  675]
564.466	0.2	3672408	3672647	BlankScreen	ANTI	74	3	False	red	600	[ 90 570 405 675]	[1350 1830  405  675]
564.705	1.0	3672647	3673647	ELCue	ANTI	74	3	False	red	600	[ 90 570 405 675]	[1350 1830  405  675]
566.08	6.0	3674022	3680049	ShowFixation	ANTI	75	3	False	red	40	[1350 1830  405  675]	[ 90 570 405 675]
572.107	0.2	3680049	3680288	BlankScreen	ANTI	75	3	False	red	40	[1350 1830  405  675]	[ 90 570 405 675]
572.346	1.0	3680288	3681288	ELCue	ANTI	75	3	False	red	40	[1350 1830  405  675]	[ 90 570 405 675]
573.756	2.0	3681698	3683740	ShowFixation	ANTI	76	3	False	red	180	[1035 1515  405  675]	[405 885 405 675]
575.798	0.2	3683740	3683975	BlankScreen	ANTI	76	3	False	red	180	[1035 1515  405  675]	[405 885 405 675]
576.033	1.0	3683975	3684975	ELCue	ANTI	76	3	False	red	180	[1035 1515  405  675]	[405 885 405 675]
577.437	2.0	3685379	3687410	ShowFixation	VGS	77	3	False	lime	600	[1350 1830  405  675]	[ 90 570 405 675]
579.468	0.2	3687410	3687645	BlankScreen	VGS	77	3	False	lime	600	[1350 1830  405  675]	[ 90 570 405 675]
579.703	1.0	3687645	3688645	ELCue	VGS	77	3	False	lime	600	[1350 1830  405  675]	[ 90 570 405 675]
581.093	2.0	3689035	3691063	ShowFixation	ANTI	78	3	False	red	460	[405 885 405 675]	[1035 1515  405  675]
583.121	0.2	3691063	3691299	BlankScreen	ANTI	78	3	False	red	460	[405 885 405 675]	[1035 1515  405  675]
583.357	1.0	3691299	3692299	ELCue	ANTI	78	3	False	red	460	[405 885 405 675]	[1035 1515  405  675]
584.76	2.0	3692702	3694734	ShowFixation	ANTI	79	3	False	red	180	[1035 1515  405  675]	[405 885 405 675]
586.792	0.2	3694734	3694969	BlankScreen	ANTI	79	3	False	red	180	[1035 1515  405  675]	[405 885 405 675]
587.027	1.0	3694969	3695969	ELCue	ANTI	79	3	False	red	180	[1035 1515  405  675]	[405 885 405 675]
588.433	6.0	3696375	3702404	ShowFixation	VGS	80	3	False	lime	600	[1350 1830  405  675]	[ 90 570 405 675]
594.462	0.2	3702404	3702643	BlankScreen	VGS	80	3	False	lime	600	[1350 1830  405  675]	[ 90 570 405 675]
594.701	1.0	3702643	3703643	ELCue	VGS	80	3	False	lime	600	[1350 1830  405  675]	[ 90 570 405 675]
778.79	2.0	3886732	3888759	ShowFixation	VGS	81	4	False	lime	600	[1350 1830  405  675]	[ 90 570 405 675]
780.817	0.2	3888759	3888995	BlankScreen	VGS	81	4	False	lime	600	[1350 1830  405  675]	[ 90 570 405 675]
781.053	1.0	3888995	3889995	ELCue	VGS	81	4	False	lime	600	[1350 1830  405  675]	[ 90 570 405 675]
782.461	2.0	3890403	3892430	ShowFixation	VGS	82	4	False	lime	600	[1350 1830  405  675]	[ 90 570 405 675]
784.489	0.2	3892431	3892666	BlankScreen	VGS	82	4	False	lime	600	[1350 1830  405  675]	[ 90 570 405 675]
784.724	1.0	3892666	3893666	ELCue	VGS	82	4	False	lime	600	[1350 1830  405  675]	[ 90 570 405 675]
786.103	2.0	3894045	3896084	ShowFixation	VGS	83	4	False	lime	40	[ 90 570 405 675]	[1350 1830  405  675]
788.142	0.2	3896084	3896320	BlankScreen	VGS	83	4	False	lime	40	[ 90 570 405 675]	[1350 1830  405  675]
788.378	1.0	3896320	3897320	ELCue	VGS	83	4	False	lime	40	[ 90 570 405 675]	[1350 1830  405  675]
789.786	6.0	3897728	3903754	ShowFixation	ANTI	84	4	False	red	180	[1035 1515  405  675]	[405 885 405 675]
795.813	0.2	3903755	3903993	BlankScreen	ANTI	84	4	False	red	180	[1035 1515  405  675]	[405 885 405 675]
796.051	1.0	3903993	3904993	ELCue	ANTI	84	4	False	red	180	[1035 1515  405  675]	[405 885 405 675]
797.464	2.0	3905406	3907444	ShowFixation	ANTI	85	4	False	red	40	[1350 1830  405  675]	[ 90 570 405 675]
799.502	0.2	3907444	3907680	BlankScreen	ANTI	85	4	False	red	40	[1350 1830  405  675]	[ 90 570 405 675]
799.738	1.0	3907680	3908680	ELCue	ANTI	85	4	False	red	40	[1350 1830  405  675]	[ 90 570 405 675]
801.144	6.0	3909086	3915115	ShowFixation	VGS	86	4	False	lime	460	[1035 1515  405  675]	[405 885 405 675]
807.173	0.2	3915115	3915355	BlankScreen	VGS	86	4	False	lime	460	[1035 1515  405  675]	[405 885 405 675]
807.413	1.0	3915355	3916355	ELCue	VGS	86	4	False	lime	460	[1035 1515  405  675]	[405 885 405 675]
808.819	6.0	3916761	3922790	ShowFixation	VGS	87	4	False	lime	600	[1350 1830  405  675]	[ 90 570 405 675]
814.848	0.2	3922790	3923028	BlankScreen	VGS	87	4	False	lime	600	[1350 1830  405  675]	[ 90 570 405 675]
815.087	1.0	3923029	3924029	ELCue	VGS	87	4	False	lime	600	[1350 1830  405  675]	[ 90 570 405 675]
816.496	6.0	3924438	3930464	ShowFixation	ANTI	88	4	False	red	40	[1350 1830  405  675]	[ 90 570 405 675]
822.522	0.2	3930464	3930703	BlankScreen	ANTI	88	4	False	red	40	[1350 1830  405  675]	[ 90 570 405 675]
822.761	1.0	3930703	3931703	ELCue	ANTI	88	4	False	red	40	[1350 1830  405  675]	[ 90 570 405 675]
824.162	2.0	3932104	3934138	ShowFixation	ANTI	89	4	False	red	460	[405 885 405 675]	[1035 1515  405  675]
826.196	0.2	3934138	3934374	BlankScreen	ANTI	89	4	False	red	460	[405 885 405 675]	[1035 1515  405  675]
826.432	1.0	3934374	3935374	ELCue	ANTI	89	4	False	red	460	[405 885 405 675]	[1035 1515  405  675]
827.842	6.0	3935784	3941825	ShowFixation	ANTI	90	4	False	red	600	[ 90 570 405 675]	[1350 1830  405  675]
833.883	0.2	3941825	3942065	BlankScreen	ANTI	90	4	False	red	600	[ 90 570 405 675]	[1350 1830  405  675]
834.123	1.0	3942065	3943065	ELCue	ANTI	90	4	False	red	600	[ 90 570 405 675]	[1350 1830  405  675]
835.533	2.0	3943475	3945516	ShowFixation	ANTI	91	4	False	red	600	[ 90 570 405 675]	[1350 1830  405  675]
837.574	0.2	3945516	3945752	BlankScreen	ANTI	91	4	False	red	600	[ 90 570 405 675]	[1350 1830  405  675]
837.81	1.0	3945752	3946752	ELCue	ANTI	91	4	False	red	600	[ 90 570 405 675]	[1350 1830  405  675]
839.201	2.0	3947143	3949170	ShowFixation	VGS	92	4	False	lime	460	[1035 1515  405  675]	[405 885 405 675]
841.228	0.2	3949170	3949405	BlankScreen	VGS	92	4	False	lime	460	[1035 1515  405  675]	[405 885 405 675]
841.463	1.0	3949405	3950405	ELCue	VGS	92	4	False	lime	460	[1035 1515  405  675]	[405 885 405 675]
842.871	6.0	3950813	3956840	ShowFixation	ANTI	93	4	False	red	40	[1350 1830  405  675]	[ 90 570 405 675]
848.898	0.2	3956840	3957079	BlankScreen	ANTI	93	4	False	red	40	[1350 1830  405  675]	[ 90 570 405 675]
849.137	1.0	3957079	3958079	ELCue	ANTI	93	4	False	red	40	[1350 1830  405  675]	[ 90 570 405 675]
850.547	6.0	3958489	3964514	ShowFixation	VGS	94	4	False	lime	600	[1350 1830  405  675]	[ 90 570 405 675]
856.572	0.2	3964514	3964754	BlankScreen	VGS	94	4	False	lime	600	[1350 1830  405  675]	[ 90 570 405 675]
856.812	1.0	3964754	3965754	ELCue	VGS	94	4	False	lime	600	[1350 1830  405  675]	[ 90 570 405 675]
858.22	2.0	3966162	3968189	ShowFixation	VGS	95	4	False	lime	180	[405 885 405 675]	[1035 1515  405  675]
860.247	0.2	3968189	3968424	BlankScreen	VGS	95	4	False	lime	180	[405 885 405 675]	[1035 1515  405  675]
860.482	1.0	3968424	3969424	ELCue	VGS	95	4	False	lime	180	[405 885 405 675]	[1035 1515  405  675]
861.889	2.0	3969831	3971859	ShowFixation	ANTI	96	4	False	red	600	[ 90 570 405 675]	[1350 1830  405  675]
863.917	0.2	3971859	3972094	BlankScreen	ANTI	96	4	False	red	600	[ 90 570 405 675]	[1350 1830  405  675]
864.152	1.0	3972094	3973094	ELCue	ANTI	96	4	False	red	600	[ 90 570 405 675]	[1350 1830  405  675]
865.544	2.0	3973486	3975513	ShowFixation	ANTI	97	4	False	red	40	[1350 1830  405  675]	[ 90 570 405 675]
867.571	0.2	3975513	3975748	BlankScreen	ANTI	97	4	False	red	40	[1350 1830  405  675]	[ 90 570 405 675]
867.806	1.0	3975748	3976748	ELCue	ANTI	97	4	False	red	40	[1350 1830  405  675]	[ 90 570 405 675]
869.212	6.0	3977154	3983183	ShowFixation	VGS	98	4	False	lime	180	[405 885 405 675]	[1035 1515  405  675]
875.241	0.2	3983183	3983422	BlankScreen	VGS	98	4	False	lime	180	[405 885 405 675]	[1035 1515  405  675]
875.48	1.0	3983422	3984422	ELCue	VGS	98	4	False	lime	180	[405 885 405 675]	[1035 1515  405  675]
876.889	6.0	3984831	3990857	ShowFixation	VGS	99	4	False	lime	40	[ 90 570 405 675]	[1350 1830  405  675]
882.915	0.2	3990857	3991096	BlankScreen	VGS	99	4	False	lime	40	[ 90 570 405 675]	[1350 1830  405  675]
883.154	1.0	3991096	3992096	ELCue	VGS	99	4	False	lime	40	[ 90 570 405 675]	[1350 1830  405  675]
884.564	2.0	3992506	3994531	ShowFixation	ANTI	100	4	False	red	180	[1035 1515  405  675]	[405 885 405 675]
886.589	0.2	3994531	3994767	BlankScreen	ANTI	100	4	False	red	180	[1035 1515  405  675]	[405 885 405 675]
886.825	1.0	3994767	3995767	ELCue	ANTI	100	4	False	red	180	[1035 1515  405  675]	[405 885 405 675]
888.235	6.0	3996177	4002202	ShowFixation	ANTI	101	4	False	red	460	[405 885 405 675]	[1035 1515  405  675]
894.26	0.2	4002202	4002441	BlankScreen	ANTI	101	4	False	red	460	[405 885 405 675]	[1035 1515  405  675]
894.499	1.0	4002441	4003441	ELCue	ANTI	101	4	False	red	460	[405 885 405 675]	[1035 1515  405  675]
895.875	6.0	4003817	4009842	ShowFixation	VGS	102	4	False	lime	180	[405 885 405 675]	[1035 1515  405  675]
901.9	0.2	4009842	4010082	BlankScreen	VGS	102	4	False	lime	180	[405 885 405 675]	[1035 1515  405  675]
902.14	1.0	4010082	4011082	ELCue	VGS	102	4	False	lime	180	[405 885 405 675]	[1035 1515  405  675]
903.548	6.0	4011490	4017517	ShowFixation	ANTI	103	4	False	red	460	[405 885 405 675]	[1035 1515  405  675]
909.575	0.2	4017517	4017756	BlankScreen	ANTI	103	4	False	red	460	[405 885 405 675]	[1035 1515  405  675]
909.814	1.0	4017756	4018756	ELCue	ANTI	103	4	False	red	460	[405 885 405 675]	[1035 1515  405  675]
911.222	2.0	4019164	4021191	ShowFixation	VGS	104	4	False	lime	460	[1035 1515  405  675]	[405 885 405 675]
913.249	0.2	4021191	4021426	BlankScreen	VGS	104	4	False	lime	460	[1035 1515  405  675]	[405 885 405 675]
913.484	1.0	4021426	4022426	ELCue	VGS	104	4	False	lime	460	[1035 1515  405  675]	[405 885 405 675]
914.859	6.0	4022801	4028828	ShowFixation	VGS	105	4	False	lime	40	[ 90 570 405 675]	[1350 1830  405  675]
920.886	0.2	4028828	4029067	BlankScreen	VGS	105	4	False	lime	40	[ 90 570 405 675]	[1350 1830  405  675]
921.125	1.0	4029067	4030067	ELCue	VGS	105	4	False	lime	40	[ 90 570 405 675]	[1350 1830  405  675]
922.53	2.0	4030472	4032502	ShowFixation	VGS	106	4	False	lime	40	[ 90 570 405 675]	[1350 1830  405  675]
924.56	0.2	4032502	4032737	BlankScreen	VGS	106	4	False	lime	40	[ 90 570 405 675]	[1350 1830  405  675]
924.795	1.0	4032737	4033737	ELCue	VGS	106	4	False	lime	40	[ 90 570 405 675]	[1350 1830  405  675]
926.171	2.0	4034113	4036139	ShowFixation	ANTI	107	4	False	red	180	[1035 1515  405  675]	[405 885 405 675]
928.197	0.2	4036139	4036374	BlankScreen	ANTI	107	4	False	red	180	[1035 1515  405  675]	[405 885 405 675]
928.432	1.0	4036374	4037374	ELCue	ANTI	107	4	False	red	180	[1035 1515  405  675]	[405 885 405 675]
929.802	6.0	4037744	4043776	ShowFixation	ANTI	108	4	False	red	180	[1035 1515  405  675]	[405 885 405 675]
935.834	0.2	4043776	4044015	BlankScreen	ANTI	108	4	False	red	180	[1035 1515  405  675]	[405 885 405 675]
936.073	1.0	4044015	4045015	ELCue	ANTI	108	4	False	red	180	[1035 1515  405  675]	[405 885 405 675]
937.483	2.0	4045425	4047450	ShowFixation	ANTI	109	4	False	red	460	[405 885 405 675]	[1035 1515  405  675]
939.508	0.2	4047450	4047685	BlankScreen	ANTI	109	4	False	red	460	[405 885 405 675]	[1035 1515  405  675]
939.743	1.0	4047685	4048685	ELCue	ANTI	109	4	False	red	460	[405 885 405 675]	[1035 1515  405  675]
941.15	6.0	4049092	4055120	ShowFixation	VGS	110	4	False	lime	460	[1035 1515  405  675]	[405 885 405 675]
947.178	0.2	4055120	4055360	BlankScreen	VGS	110	4	False	lime	460	[1035 1515  405  675]	[405 885 405 675]
947.419	1.0	4055361	4056361	ELCue	VGS	110	4	False	lime	460	[1035 1515  405  675]	[405 885 405 675]
948.829	6.0	4056771	4062811	ShowFixation	ANTI	111	4	False	red	600	[ 90 570 405 675]	[1350 1830  405  675]
954.869	0.2	4062811	4063051	BlankScreen	ANTI	111	4	False	red	600	[ 90 570 405 675]	[1350 1830  405  675]
955.109	1.0	4063051	4064051	ELCue	ANTI	111	4	False	red	600	[ 90 570 405 675]	[1350 1830  405  675]
956.52	2.0	4064462	4066503	ShowFixation	VGS	112	4	False	lime	180	[405 885 405 675]	[1035 1515  405  675]
958.561	0.2	4066503	4066737	BlankScreen	VGS	112	4	False	lime	180	[405 885 405 675]	[1035 1515  405  675]
958.796	1.0	4066738	4067738	ELCue	VGS	112	4	False	lime	180	[405 885 405 675]	[1035 1515  405  675]
