onset	duration	startTime	stopTime	eventIdentifier	trial_type	trial_number	block_number	is_practice	fixation_color	cue_side	aoi_correct	aoi_incorrect
0.143	2.0	4144628	4146666	ShowFixation	ANTI	1	1	True	red	180	[1035 1515  405  675]	[405 885 405 675]
2.181	0.2	4146666	4146902	BlankScreen	ANTI	1	1	True	red	180	[1035 1515  405  675]	[405 885 405 675]
2.417	1.0	4146902	4147942	ELCue	ANTI	1	1	True	red	180	[1035 1515  405  675]	[405 885 405 675]
3.839	6.0	4148324	4154987	ShowFixation	ANTI	2	1	True	red	600	[ 90 570 405 675]	[1350 1830  405  675]
10.502	0.2	4154987	4155226	BlankScreen	ANTI	2	1	True	red	600	[ 90 570 405 675]	[1350 1830  405  675]
10.741	1.0	4155226	4156266	ELCue	ANTI	2	1	True	red	600	[ 90 570 405 675]	[1350 1830  405  675]
12.187	2.0	4156672	4159295	ShowFixation	VGS	3	1	True	lime	460	[1035 1515  405  675]	[405 885 405 675]
14.81	0.2	4159295	4159514	BlankScreen	VGS	3	1	True	lime	460	[1035 1515  405  675]	[405 885 405 675]
15.029	1.0	4159514	4160537	ELCue	VGS	3	1	True	lime	460	[1035 1515  405  675]	[405 885 405 675]
16.456	6.0	4160941	4167583	ShowFixation	ANTI	4	1	True	red	40	[1350 1830  405  675]	[ 90 570 405 675]
23.098	0.2	4167583	4167822	BlankScreen	ANTI	4	1	True	red	40	[1350 1830  405  675]	[ 90 570 405 675]
23.337	1.0	4167822	4168860	ELCue	ANTI	4	1	True	red	40	[1350 1830  405  675]	[ 90 570 405 675]
24.781	6.0	4169266	4175908	ShowFixation	VGS	5	1	True	lime	600	[1350 1830  405  675]	[ 90 570 405 675]
31.423	0.2	4175908	4176147	BlankScreen	VGS	5	1	True	lime	600	[1350 1830  405  675]	[ 90 570 405 675]
31.662	1.0	4176147	4177187	ELCue	VGS	5	1	True	lime	600	[1350 1830  405  675]	[ 90 570 405 675]
33.104	2.0	4177589	4180216	ShowFixation	VGS	6	1	True	lime	40	[ 90 570 405 675]	[1350 1830  405  675]
35.731	0.2	4180216	4180435	BlankScreen	VGS	6	1	True	lime	40	[ 90 570 405 675]	[1350 1830  405  675]
35.95	1.0	4180435	4181459	ELCue	VGS	6	1	True	lime	40	[ 90 570 405 675]	[1350 1830  405  675]
37.376	6.0	4181861	4188503	ShowFixation	ANTI	7	1	True	red	460	[405 885 405 675]	[1035 1515  405  675]
44.018	0.2	4188503	4188743	BlankScreen	ANTI	7	1	True	red	460	[405 885 405 675]	[1035 1515  405  675]
44.258	1.0	4188743	4189783	ELCue	ANTI	7	1	True	red	460	[405 885 405 675]	[1035 1515  405  675]
45.704	2.0	4190189	4192812	ShowFixation	ANTI	8	1	True	red	600	[ 90 570 405 675]	[1350 1830  405  675]
48.327	0.2	4192812	4193030	BlankScreen	ANTI	8	1	True	red	600	[ 90 570 405 675]	[1350 1830  405  675]
48.545	1.0	4193030	4194054	ELCue	ANTI	8	1	True	red	600	[ 90 570 405 675]	[1350 1830  405  675]
49.952	6.0	4194437	4201099	ShowFixation	VGS	9	1	True	lime	460	[1035 1515  405  675]	[405 885 405 675]
56.614	0.2	4201099	4201339	BlankScreen	VGS	9	1	True	lime	460	[1035 1515  405  675]	[405 885 405 675]
56.855	1.0	4201340	4202379	ELCue	VGS	9	1	True	lime	460	[1035 1515  405  675]	[405 885 405 675]
58.298	2.0	4202783	4205407	ShowFixation	VGS	10	1	True	lime	180	[405 885 405 675]	[1035 1515  405  675]
60.923	0.2	4205408	4205626	BlankScreen	VGS	10	1	True	lime	180	[405 885 405 675]	[1035 1515  405  675]
61.142	1.0	4205627	4206650	ELCue	VGS	10	1	True	lime	180	[405 885 405 675]	[1035 1515  405  675]
62.566	6.0	4207051	4213696	ShowFixation	VGS	11	1	True	lime	180	[405 885 405 675]	[1035 1515  405  675]
69.211	0.2	4213696	4213935	BlankScreen	VGS	11	1	True	lime	180	[405 885 405 675]	[1035 1515  405  675]
69.45	1.0	4213935	4214975	ELCue	VGS	11	1	True	lime	180	[405 885 405 675]	[1035 1515  405  675]
70.891	6.0	4215376	4222021	ShowFixation	VGS	12	1	True	lime	40	[ 90 570 405 675]	[1350 1830  405  675]
77.536	0.2	4222021	4222260	BlankScreen	VGS	12	1	True	lime	40	[ 90 570 405 675]	[1350 1830  405  675]
77.775	1.0	4222260	4223300	ELCue	VGS	12	1	True	lime	40	[ 90 570 405 675]	[1350 1830  405  675]
79.216	2.0	4223701	4226346	ShowFixation	ANTI	13	1	True	red	40	[1350 1830  405  675]	[ 90 570 405 675]
81.861	0.2	4226346	4226581	BlankScreen	ANTI	13	1	True	red	40	[1350 1830  405  675]	[ 90 570 405 675]
82.096	1.0	4226581	4227621	ELCue	ANTI	13	1	True	red	40	[1350 1830  405  675]	[ 90 570 405 675]
83.539	2.0	4228024	4230667	ShowFixation	VGS	14	1	True	lime	600	[1350 1830  405  675]	[ 90 570 405 675]
86.182	0.2	4230667	4230902	BlankScreen	VGS	14	1	True	lime	600	[1350 1830  405  675]	[ 90 570 405 675]
86.417	1.0	4230902	4231942	ELCue	VGS	14	1	True	lime	600	[1350 1830  405  675]	[ 90 570 405 675]
87.842	6.0	4232327	4238988	ShowFixation	ANTI	15	1	True	red	180	[1035 1515  405  675]	[405 885 405 675]
94.503	0.2	4238988	4239227	BlankScreen	ANTI	15	1	True	red	180	[1035 1515  405  675]	[405 885 405 675]
94.742	1.0	4239227	4240264	ELCue	ANTI	15	1	True	red	180	[1035 1515  405  675]	[405 885 405 675]
96.189	2.0	4240674	4243312	ShowFixation	ANTI	16	1	True	red	460	[405 885 405 675]	[1035 1515  405  675]
98.827	0.2	4243312	4243548	BlankScreen	ANTI	16	1	True	red	460	[405 885 405 675]	[1035 1515  405  675]
99.063	1.0	4243548	4244585	ELCue	ANTI	16	1	True	red	460	[405 885 405 675]	[1035 1515  405  675]
147.442	2.0	4291927	4293962	ShowFixation	VGS	17	2	False	lime	600	[1350 1830  405  675]	[ 90 570 405 675]
149.477	0.2	4293962	4294198	BlankScreen	VGS	17	2	False	lime	600	[1350 1830  405  675]	[ 90 570 405 675]
149.713	1.0	4294198	4295198	ELCue	VGS	17	2	False	lime	600	[1350 1830  405  675]	[ 90 570 405 675]
151.124	2.0	4295609	4297649	ShowFixation	VGS	18	2	False	lime	40	[ 90 570 405 675]	[1350 1830  405  675]
153.164	0.2	4297649	4297885	BlankScreen	VGS	18	2	False	lime	40	[ 90 570 405 675]	[1350 1830  405  675]
153.4	1.0	4297885	4298885	ELCue	VGS	18	2	False	lime	40	[ 90 570 405 675]	[1350 1830  405  675]
154.812	6.0	4299297	4305336	ShowFixation	VGS	19	2	False	lime	600	[1350 1830  405  675]	[ 90 570 405 675]
160.851	0.2	4305336	4305576	BlankScreen	VGS	19	2	False	lime	600	[1350 1830  405  675]	[ 90 570 405 675]
161.091	1.0	4305576	4306576	ELCue	VGS	19	2	False	lime	600	[1350 1830  405  675]	[ 90 570 405 675]
162.498	2.0	4306983	4309011	ShowFixation	ANTI	20	2	False	red	40	[1350 1830  405  675]	[ 90 570 405 675]
164.526	0.2	4309011	4309246	BlankScreen	ANTI	20	2	False	red	40	[1350 1830  405  675]	[ 90 570 405 675]
164.761	1.0	4309246	4310246	ELCue	ANTI	20	2	False	red	40	[1350 1830  405  675]	[ 90 570 405 675]
166.165	2.0	4310650	4312681	ShowFixation	VGS	21	2	False	lime	460	[1035 1515  405  675]	[405 885 405 675]
168.197	0.2	4312682	4312916	BlankScreen	VGS	21	2	False	lime	460	[1035 1515  405  675]	[405 885 405 675]
168.431	1.0	4312916	4313916	ELCue	VGS	21	2	False	lime	460	[1035 1515  405  675]	[405 885 405 675]
169.836	2.0	4314321	4316351	ShowFixation	VGS	22	2	False	lime	180	[405 885 405 675]	[1035 1515  405  675]
171.867	0.2	4316352	4316587	BlankScreen	VGS	22	2	False	lime	180	[405 885 405 675]	[1035 1515  405  675]
172.103	1.0	4316588	4317588	ELCue	VGS	22	2	False	lime	180	[405 885 405 675]	[1035 1515  405  675]
173.506	6.0	4317991	4324022	ShowFixation	ANTI	23	2	False	red	40	[1350 1830  405  675]	[ 90 570 405 675]
179.537	0.2	4324022	4324262	BlankScreen	ANTI	23	2	False	red	40	[1350 1830  405  675]	[ 90 570 405 675]
179.777	1.0	4324262	4325262	ELCue	ANTI	23	2	False	red	40	[1350 1830  405  675]	[ 90 570 405 675]
181.16	6.0	4325645	4331680	ShowFixation	VGS	24	2	False	lime	460	[1035 1515  405  675]	[405 885 405 675]
187.195	0.2	4331680	4331919	BlankScreen	VGS	24	2	False	lime	460	[1035 1515  405  675]	[405 885 405 675]
187.434	1.0	4331919	4332919	ELCue	VGS	24	2	False	lime	460	[1035 1515  405  675]	[405 885 405 675]
188.844	6.0	4333329	4339354	ShowFixation	ANTI	25	2	False	red	460	[405 885 405 675]	[1035 1515  405  675]
194.869	0.2	4339354	4339594	BlankScreen	ANTI	25	2	False	red	460	[405 885 405 675]	[1035 1515  405  675]
195.109	1.0	4339594	4340594	ELCue	ANTI	25	2	False	red	460	[405 885 405 675]	[1035 1515  405  675]
196.517	2.0	4341002	4343028	ShowFixation	VGS	26	2	False	lime	40	[ 90 570 405 675]	[1350 1830  405  675]
198.543	0.2	4343028	4343264	BlankScreen	VGS	26	2	False	lime	40	[ 90 570 405 675]	[1350 1830  405  675]
198.779	1.0	4343264	4344264	ELCue	VGS	26	2	False	lime	40	[ 90 570 405 675]	[1350 1830  405  675]
200.182	6.0	4344667	4350699	ShowFixation	ANTI	27	2	False	red	600	[ 90 570 405 675]	[1350 1830  405  675]
206.214	0.2	4350699	4350938	BlankScreen	ANTI	27	2	False	red	600	[ 90 570 405 675]	[1350 1830  405  675]
206.453	1.0	4350938	4351938	ELCue	ANTI	27	2	False	red	600	[ 90 570 405 675]	[1350 1830  405  675]
207.844	6.0	4352329	4358356	ShowFixation	ANTI	28	2	False	red	40	[1350 1830  405  675]	[ 90 570 405 675]
213.871	0.2	4358356	4358596	BlankScreen	ANTI	28	2	False	red	40	[1350 1830  405  675]	[ 90 570 405 675]
214.111	1.0	4358596	4359596	ELCue	ANTI	28	2	False	red	40	[1350 1830  405  675]	[ 90 570 405 675]
215.512	2.0	4359997	4362031	ShowFixation	ANTI	29	2	False	red	40	[1350 1830  405  675]	[ 90 570 405 675]
217.546	0.2	4362031	4362266	BlankScreen	ANTI	29	2	False	red	40	[1350 1830  405  675]	[ 90 570 405 675]
217.781	1.0	4362266	4363266	ELCue	ANTI	29	2	False	red	40	[1350 1830  405  675]	[ 90 570 405 675]
219.162	2.0	4363647	4365684	ShowFixation	VGS	30	2	False	lime	600	[1350 1830  405  675]	[ 90 570 405 675]
221.199	0.2	4365684	4365920	BlankScreen	VGS	30	2	False	lime	600	[1350 1830  405  675]	[ 90 570 405 675]
221.435	1.0	4365920	4366920	ELCue	VGS	30	2	False	lime	600	[1350 1830  405  675]	[ 90 570 405 675]
222.838	6.0	4367323	4373354	ShowFixation	VGS	31	2	False	lime	180	[405 885 405 675]	[1035 1515  405  675]
228.869	0.2	4373354	4373594	BlankScreen	VGS	31	2	False	lime	180	[405 885 405 675]	[1035 1515  405  675]
229.109	1.0	4373594	4374594	ELCue	VGS	31	2	False	lime	180	[405 885 405 675]	[1035 1515  405  675]
230.514	2.0	4374999	4377029	ShowFixation	ANTI	32	2	False	red	460	[405 885 405 675]	[1035 1515  405  675]
232.544	0.2	4377029	4377264	BlankScreen	ANTI	32	2	False	red	460	[405 885 405 675]	[1035 1515  405  675]
232.779	1.0	4377264	4378264	ELCue	ANTI	32	2	False	red	460	[405 885 405 675]	[1035 1515  405  675]
234.186	2.0	4378671	4380699	ShowFixation	VGS	33	2	False	lime	180	[405 885 405 675]	[1035 1515  405  675]
236.214	0.2	4380699	4380934	BlankScreen	VGS	33	2	False	lime	180	[405 885 405 675]	[1035 1515  405  675]
236.449	1.0	4380934	4381934	ELCue	VGS	33	2	False	lime	180	[405 885 405 675]	[1035 1515  405  675]
237.853	6.0	4382338	4388369	ShowFixation	VGS	34	2	False	lime	40	[ 90 570 405 675]	[1350 1830  405  675]
243.884	0.2	4388369	4388609	BlankScreen	VGS	34	2	False	lime	40	[ 90 570 405 675]	[1350 1830  405  675]
244.124	1.0	4388609	4389609	ELCue	VGS	34	2	False	lime	40	[ 90 570 405 675]	[1350 1830  405  675]
245.62	6.0	4390105	4396144	ShowFixation	VGS	35	2	False	lime	180	[405 885 405 675]	[1035 1515  405  675]
251.659	0.2	4396144	4396383	BlankScreen	VGS	35	2	False	lime	180	[405 885 405 675]	[1035 1515  405  675]
251.898	1.0	4396383	4397383	ELCue	VGS	35	2	False	lime	180	[405 885 405 675]	[1035 1515  405  675]
253.305	2.0	4397790	4399818	ShowFixation	VGS	36	2	False	lime	460	[1035 1515  405  675]	[405 885 405 675]
255.333	0.2	4399818	4400053	BlankScreen	VGS	36	2	False	lime	460	[1035 1515  405  675]	[405 885 405 675]
255.568	1.0	4400053	4401053	ELCue	VGS	36	2	False	lime	460	[1035 1515  405  675]	[405 885 405 675]
256.976	2.0	4401461	4403488	ShowFixation	ANTI	37	2	False	red	180	[1035 1515  405  675]	[405 885 405 675]
259.003	0.2	4403488	4403723	BlankScreen	ANTI	37	2	False	red	180	[1035 1515  405  675]	[405 885 405 675]
259.238	1.0	4403723	4404723	ELCue	ANTI	37	2	False	red	180	[1035 1515  405  675]	[405 885 405 675]
260.642	2.0	4405127	4407158	ShowFixation	ANTI	38	2	False	red	460	[405 885 405 675]	[1035 1515  405  675]
262.673	0.2	4407158	4407394	BlankScreen	ANTI	38	2	False	red	460	[405 885 405 675]	[1035 1515  405  675]
262.909	1.0	4407394	4408394	ELCue	ANTI	38	2	False	red	460	[405 885 405 675]	[1035 1515  405  675]
264.316	6.0	4408801	4414829	ShowFixation	VGS	39	2	False	lime	600	[1350 1830  405  675]	[ 90 570 405 675]
270.344	0.2	4414829	4415068	BlankScreen	VGS	39	2	False	lime	600	[1350 1830  405  675]	[ 90 570 405 675]
270.583	1.0	4415068	4416068	ELCue	VGS	39	2	False	lime	600	[1350 1830  405  675]	[ 90 570 405 675]
271.99	2.0	4416475	4418503	ShowFixation	ANTI	40	2	False	red	180	[1035 1515  405  675]	[405 885 405 675]
274.018	0.2	4418503	4418738	BlankScreen	ANTI	40	2	False	red	180	[1035 1515  405  675]	[405 885 405 675]
274.253	1.0	4418738	4419738	ELCue	ANTI	40	2	False	red	180	[1035 1515  405  675]	[405 885 405 675]
275.665	2.0	4420150	4422190	ShowFixation	ANTI	41	2	False	red	600	[ 90 570 405 675]	[1350 1830  405  675]
277.705	0.2	4422190	4422425	BlankScreen	ANTI	41	2	False	red	600	[ 90 570 405 675]	[1350 1830  405  675]
277.941	1.0	4422426	4423426	ELCue	ANTI	41	2	False	red	600	[ 90 570 405 675]	[1350 1830  405  675]
279.352	6.0	4423837	4429878	ShowFixation	VGS	42	2	False	lime	40	[ 90 570 405 675]	[1350 1830  405  675]
285.393	0.2	4429878	4430117	BlankScreen	VGS	42	2	False	lime	40	[ 90 570 405 675]	[1350 1830  405  675]
285.632	1.0	4430117	4431117	ELCue	VGS	42	2	False	lime	40	[ 90 570 405 675]	[1350 1830  405  675]
287.035	6.0	4431520	4437552	ShowFixation	ANTI	43	2	False	red	600	[ 90 570 405 675]	[1350 1830  405  675]
293.067	0.2	4437552	4437791	BlankScreen	ANTI	43	2	False	red	600	[ 90 570 405 675]	[1350 1830  405  675]
293.306	1.0	4437791	4438791	ELCue	ANTI	43	2	False	red	600	[ 90 570 405 675]	[1350 1830  405  675]
294.714	6.0	4439199	4445226	ShowFixation	ANTI	44	2	False	red	180	[1035 1515  405  675]	[405 885 405 675]
300.741	0.2	4445226	4445466	BlankScreen	ANTI	44	2	False	red	180	[1035 1515  405  675]	[405 885 405 675]
300.981	1.0	4445466	4446466	ELCue	ANTI	44	2	False	red	180	[1035 1515  405  675]	[405 885 405 675]
302.391	6.0	4446876	4452917	ShowFixation	VGS	45	2	False	lime	460	[1035 1515  405  675]	[405 885 405 675]
308.432	0.2	4452917	4453157	BlankScreen	VGS	45	2	False	lime	460	[1035 1515  405  675]	[405 885 405 675]
308.672	1.0	4453157	4454157	ELCue	VGS	45	2	False	lime	460	[1035 1515  405  675]	[405 885 405 675]
310.079	6.0	4454564	4460591	ShowFixation	ANTI	46	2	False	red	180	[1035 1515  405  675]	[405 885 405 675]
316.106	0.2	4460591	4460831	BlankScreen	ANTI	46	2	False	red	180	[1035 1515  405  675]	[405 885 405 675]
316.346	1.0	4460831	4461831	ELCue	ANTI	46	2	False	red	180	[1035 1515  405  675]	[405 885 405 675]
317.753	2.0	4462238	4464266	ShowFixation	ANTI	47	2	False	red	600	[ 90 570 405 675]	[1350 1830  405  675]
319.781	0.2	4464266	4464501	BlankScreen	ANTI	47	2	False	red	600	[ 90 570 405 675]	[1350 1830  405  675]
320.016	1.0	4464501	4465501	ELCue	ANTI	47	2	False	red	600	[ 90 570 405 675]	[1350 1830  405  675]
321.422	6.0	4465907	4471936	ShowFixation	ANTI	48	2	False	red	460	[405 885 405 675]	[1035 1515  405  675]
327.451	0.2	4471936	4472175	BlankScreen	ANTI	48	2	False	red	460	[405 885 405 675]	[1035 1515  405  675]
327.69	1.0	4472175	4473175	ELCue	ANTI	48	2	False	red	460	[405 885 405 675]	[1035 1515  405  675]
344.089	2.0	4488574	4490608	ShowFixation	VGS	49	3	False	lime	180	[405 885 405 675]	[1035 1515  405  675]
346.123	0.2	4490608	4490844	BlankScreen	VGS	49	3	False	lime	180	[405 885 405 675]	[1035 1515  405  675]
346.359	1.0	4490844	4491844	ELCue	VGS	49	3	False	lime	180	[405 885 405 675]	[1035 1515  405  675]
347.761	2.0	4492246	4494279	ShowFixation	ANTI	50	3	False	red	40	[1350 1830  405  675]	[ 90 570 405 675]
349.794	0.2	4494279	4494514	BlankScreen	ANTI	50	3	False	red	40	[1350 1830  405  675]	[ 90 570 405 675]
350.029	1.0	4494514	4495514	ELCue	ANTI	50	3	False	red	40	[1350 1830  405  675]	[ 90 570 405 675]
351.436	2.0	4495921	4497949	ShowFixation	VGS	51	3	False	lime	40	[ 90 570 405 675]	[1350 1830  405  675]
353.464	0.2	4497949	4498185	BlankScreen	VGS	51	3	False	lime	40	[ 90 570 405 675]	[1350 1830  405  675]
353.7	1.0	4498185	4499185	ELCue	VGS	51	3	False	lime	40	[ 90 570 405 675]	[1350 1830  405  675]
355.106	6.0	4499591	4505619	ShowFixation	ANTI	52	3	False	red	460	[405 885 405 675]	[1035 1515  405  675]
361.134	0.2	4505619	4505859	BlankScreen	ANTI	52	3	False	red	460	[405 885 405 675]	[1035 1515  405  675]
361.374	1.0	4505859	4506859	ELCue	ANTI	52	3	False	red	460	[405 885 405 675]	[1035 1515  405  675]
362.764	6.0	4507249	4513277	ShowFixation	VGS	53	3	False	lime	40	[ 90 570 405 675]	[1350 1830  405  675]
368.792	0.2	4513277	4513516	BlankScreen	VGS	53	3	False	lime	40	[ 90 570 405 675]	[1350 1830  405  675]
369.031	1.0	4513516	4514516	ELCue	VGS	53	3	False	lime	40	[ 90 570 405 675]	[1350 1830  405  675]
370.44	6.0	4514925	4520951	ShowFixation	ANTI	54	3	False	red	180	[1035 1515  405  675]	[405 885 405 675]
376.466	0.2	4520951	4521190	BlankScreen	ANTI	54	3	False	red	180	[1035 1515  405  675]	[405 885 405 675]
376.705	1.0	4521190	4522190	ELCue	ANTI	54	3	False	red	180	[1035 1515  405  675]	[405 885 405 675]
378.118	6.0	4522603	4528643	ShowFixation	ANTI	55	3	False	red	40	[1350 1830  405  675]	[ 90 570 405 675]
384.158	0.2	4528643	4528882	BlankScreen	ANTI	55	3	False	red	40	[1350 1830  405  675]	[ 90 570 405 675]
384.397	1.0	4528882	4529882	ELCue	ANTI	55	3	False	red	40	[1350 1830  405  675]	[ 90 570 405 675]
385.802	6.0	4530287	4536317	ShowFixation	ANTI	56	3	False	red	180	[1035 1515  405  675]	[405 885 405 675]
391.832	0.2	4536317	4536556	BlankScreen	ANTI	56	3	False	red	180	[1035 1515  405  675]	[405 885 405 675]
392.071	1.0	4536556	4537556	ELCue	ANTI	56	3	False	red	180	[1035 1515  405  675]	[405 885 405 675]
393.48	6.0	4537965	4543991	ShowFixation	ANTI	57	3	False	red	600	[ 90 570 405 675]	[1350 1830  405  675]
399.506	0.2	4543991	4544231	BlankScreen	ANTI	57	3	False	red	600	[ 90 570 405 675]	[1350 1830  405  675]
399.746	1.0	4544231	4545231	ELCue	ANTI	57	3	False	red	600	[ 90 570 405 675]	[1350 1830  405  675]
401.151	2.0	4545636	4547666	ShowFixation	ANTI	58	3	False	red	180	[1035 1515  405  675]	[405 885 405 675]
403.181	0.2	4547666	4547901	BlankScreen	ANTI	58	3	False	red	180	[1035 1515  405  675]	[405 885 405 675]
403.416	1.0	4547901	4548901	ELCue	ANTI	58	3	False	red	180	[1035 1515  405  675]	[405 885 405 675]
404.82	2.0	4549305	4551336	ShowFixation	VGS	59	3	False	lime	40	[ 90 570 405 675]	[1350 1830  405  675]
406.851	0.2	4551336	4551571	BlankScreen	VGS	59	3	False	lime	40	[ 90 570 405 675]	[1350 1830  405  675]
407.086	1.0	4551571	4552571	ELCue	VGS	59	3	False	lime	40	[ 90 570 405 675]	[1350 1830  405  675]
408.497	6.0	4552982	4559023	ShowFixation	ANTI	60	3	False	red	460	[405 885 405 675]	[1035 1515  405  675]
414.538	0.2	4559023	4559262	BlankScreen	ANTI	60	3	False	red	460	[405 885 405 675]	[1035 1515  405  675]
414.777	1.0	4559262	4560262	ELCue	ANTI	60	3	False	red	460	[405 885 405 675]	[1035 1515  405  675]
416.187	6.0	4560672	4566697	ShowFixation	VGS	61	3	False	lime	460	[1035 1515  405  675]	[405 885 405 675]
422.212	0.2	4566697	4566936	BlankScreen	VGS	61	3	False	lime	460	[1035 1515  405  675]	[405 885 405 675]
422.451	1.0	4566936	4567936	ELCue	VGS	61	3	False	lime	460	[1035 1515  405  675]	[405 885 405 675]
423.857	2.0	4568342	4570371	ShowFixation	VGS	62	3	False	lime	460	[1035 1515  405  675]	[405 885 405 675]
425.886	0.2	4570371	4570607	BlankScreen	VGS	62	3	False	lime	460	[1035 1515  405  675]	[405 885 405 675]
426.122	1.0	4570607	4571607	ELCue	VGS	62	3	False	lime	460	[1035 1515  405  675]	[405 885 405 675]
427.489	6.0	4571974	4578008	ShowFixation	VGS	63	3	False	lime	600	[1350 1830  405  675]	[ 90 570 405 675]
433.523	0.2	4578008	4578248	BlankScreen	VGS	63	3	False	lime	600	[1350 1830  405  675]	[ 90 570 405 675]
433.763	1.0	4578248	4579248	ELCue	VGS	63	3	False	lime	600	[1350 1830  405  675]	[ 90 570 405 675]
435.169	6.0	4579654	4585683	ShowFixation	VGS	64	3	False	lime	180	[405 885 405 675]	[1035 1515  405  675]
441.198	0.2	4585683	4585922	BlankScreen	VGS	64	3	False	lime	180	[405 885 405 675]	[1035 1515  405  675]
441.437	1.0	4585922	4586922	ELCue	VGS	64	3	False	lime	180	[405 885 405 675]	[1035 1515  405  675]
442.844	6.0	4587329	4593357	ShowFixation	VGS	65	3	False	lime	600	[1350 1830  405  675]	[ 90 570 405 675]
448.872	0.2	4593357	4593596	BlankScreen	VGS	65	3	False	lime	600	[1350 1830  405  675]	[ 90 570 405 675]
449.111	1.0	4593596	4594596	ELCue	VGS	65	3	False	lime	600	[1350 1830  405  675]	[ 90 570 405 675]
450.519	6.0	4595004	4601031	ShowFixation	ANTI	66	3	False	red	600	[ 90 570 405 675]	[1350 1830  405  675]
456.546	0.2	4601031	4601270	BlankScreen	ANTI	66	3	False	red	600	[ 90 570 405 675]	[1350 1830  405  675]
456.785	1.0	4601270	4602270	ELCue	ANTI	66	3	False	red	600	[ 90 570 405 675]	[1350 1830  405  675]
458.19	2.0	4602675	4604705	ShowFixation	ANTI	67	3	False	red	40	[1350 1830  405  675]	[ 90 570 405 675]
460.22	0.2	4604705	4604941	BlankScreen	ANTI	67	3	False	red	40	[1350 1830  405  675]	[ 90 570 405 675]
460.456	1.0	4604941	4605941	ELCue	ANTI	67	3	False	red	40	[1350 1830  405  675]	[ 90 570 405 675]
461.863	2.0	4606348	4608376	ShowFixation	ANTI	68	3	False	red	600	[ 90 570 405 675]	[1350 1830  405  675]
463.891	0.2	4608376	4608611	BlankScreen	ANTI	68	3	False	red	600	[ 90 570 405 675]	[1350 1830  405  675]
464.126	1.0	4608611	4609611	ELCue	ANTI	68	3	False	red	600	[ 90 570 405 675]	[1350 1830  405  675]
465.531	2.0	4610016	4612046	ShowFixation	VGS	69	3	False	lime	460	[1035 1515  405  675]	[405 885 405 675]
467.561	0.2	4612046	4612281	BlankScreen	VGS	69	3	False	lime	460	[1035 1515  405  675]	[405 885 405 675]
467.796	1.0	4612281	4613281	ELCue	VGS	69	3	False	lime	460	[1035 1515  405  675]	[405 885 405 675]
469.189	2.0	4613674	4615699	ShowFixation	VGS	70	3	False	lime	600	[1350 1830  405  675]	[ 90 570 405 675]
471.214	0.2	4615699	4615935	BlankScreen	VGS	70	3	False	lime	600	[1350 1830  405  675]	[ 90 570 405 675]
471.45	1.0	4615935	4616935	ELCue	VGS	70	3	False	lime	600	[1350 1830  405  675]	[ 90 570 405 675]
472.856	6.0	4617341	4623370	ShowFixation	VGS	71	3	False	lime	460	[1035 1515  405  675]	[405 885 405 675]
478.885	0.2	4623370	4623609	BlankScreen	VGS	71	3	False	lime	460	[1035 1515  405  675]	[405 885 405 675]
479.124	1.0	4623609	4624609	ELCue	VGS	71	3	False	lime	460	[1035 1515  405  675]	[405 885 405 675]
480.536	2.0	4625021	4627061	ShowFixation	ANTI	72	3	False	red	180	[1035 1515  405  675]	[405 885 405 675]
482.576	0.2	4627061	4627296	BlankScreen	ANTI	72	3	False	red	180	[1035 1515  405  675]	[405 885 405 675]
482.811	1.0	4627296	4628296	ELCue	ANTI	72	3	False	red	180	[1035 1515  405  675]	[405 885 405 675]
484.217	2.0	4628702	4630731	ShowFixation	ANTI	73	3	False	red	460	[405 885 405 675]	[1035 1515  405  675]
486.246	0.2	4630731	4630966	BlankScreen	ANTI	73	3	False	red	460	[405 885 405 675]	[1035 1515  405  675]
486.481	1.0	4630966	4631966	ELCue	ANTI	73	3	False	red	460	[405 885 405 675]	[1035 1515  405  675]
487.883	2.0	4632368	4634401	ShowFixation	ANTI	74	3	False	red	460	[405 885 405 675]	[1035 1515  405  675]
489.917	0.2	4634402	4634637	BlankScreen	ANTI	74	3	False	red	460	[405 885 405 675]	[1035 1515  405  675]
490.153	1.0	4634638	4635638	ELCue	ANTI	74	3	False	red	460	[405 885 405 675]	[1035 1515  405  675]
491.539	6.0	4636024	4642056	ShowFixation	VGS	75	3	False	lime	180	[405 885 405 675]	[1035 1515  405  675]
497.571	0.2	4642056	4642295	BlankScreen	VGS	75	3	False	lime	180	[405 885 405 675]	[1035 1515  405  675]
497.81	1.0	4642295	4643295	ELCue	VGS	75	3	False	lime	180	[405 885 405 675]	[1035 1515  405  675]
499.218	6.0	4643703	4649730	ShowFixation	ANTI	76	3	False	red	40	[1350 1830  405  675]	[ 90 570 405 675]
505.245	0.2	4649730	4649969	BlankScreen	ANTI	76	3	False	red	40	[1350 1830  405  675]	[ 90 570 405 675]
505.484	1.0	4649969	4650969	ELCue	ANTI	76	3	False	red	40	[1350 1830  405  675]	[ 90 570 405 675]
506.891	2.0	4651376	4653404	ShowFixation	VGS	77	3	False	lime	180	[405 885 405 675]	[1035 1515  405  675]
508.919	0.2	4653404	4653640	BlankScreen	VGS	77	3	False	lime	180	[405 885 405 675]	[1035 1515  405  675]
509.155	1.0	4653640	4654640	ELCue	VGS	77	3	False	lime	180	[405 885 405 675]	[1035 1515  405  675]
510.56	2.0	4655045	4657075	ShowFixation	VGS	78	3	False	lime	600	[1350 1830  405  675]	[ 90 570 405 675]
512.59	0.2	4657075	4657310	BlankScreen	VGS	78	3	False	lime	600	[1350 1830  405  675]	[ 90 570 405 675]
512.825	1.0	4657310	4658310	ELCue	VGS	78	3	False	lime	600	[1350 1830  405  675]	[ 90 570 405 675]
514.234	6.0	4658719	4664745	ShowFixation	VGS	79	3	False	lime	40	[ 90 570 405 675]	[1350 1830  405  675]
520.26	0.2	4664745	4664984	BlankScreen	VGS	79	3	False	lime	40	[ 90 570 405 675]	[1350 1830  405  675]
520.499	1.0	4664984	4665984	ELCue	VGS	79	3	False	lime	40	[ 90 570 405 675]	[1350 1830  405  675]
521.902	2.0	4666387	4668419	ShowFixation	ANTI	80	3	False	red	600	[ 90 570 405 675]	[1350 1830  405  675]
523.934	0.2	4668419	4668654	BlankScreen	ANTI	80	3	False	red	600	[ 90 570 405 675]	[1350 1830  405  675]
524.169	1.0	4668654	4669654	ELCue	ANTI	80	3	False	red	600	[ 90 570 405 675]	[1350 1830  405  675]
539.752	2.0	4684237	4686270	ShowFixation	ANTI	81	4	False	red	600	[ 90 570 405 675]	[1350 1830  405  675]
541.785	0.2	4686270	4686505	BlankScreen	ANTI	81	4	False	red	600	[ 90 570 405 675]	[1350 1830  405  675]
542.02	1.0	4686505	4687505	ELCue	ANTI	81	4	False	red	600	[ 90 570 405 675]	[1350 1830  405  675]
543.426	2.0	4687911	4689940	ShowFixation	VGS	82	4	False	lime	40	[ 90 570 405 675]	[1350 1830  405  675]
545.455	0.2	4689940	4690176	BlankScreen	VGS	82	4	False	lime	40	[ 90 570 405 675]	[1350 1830  405  675]
545.691	1.0	4690176	4691176	ELCue	VGS	82	4	False	lime	40	[ 90 570 405 675]	[1350 1830  405  675]
547.064	6.0	4691549	4697577	ShowFixation	ANTI	83	4	False	red	180	[1035 1515  405  675]	[405 885 405 675]
553.092	0.2	4697577	4697817	BlankScreen	ANTI	83	4	False	red	180	[1035 1515  405  675]	[405 885 405 675]
553.332	1.0	4697817	4698817	ELCue	ANTI	83	4	False	red	180	[1035 1515  405  675]	[405 885 405 675]
554.735	6.0	4699220	4705251	ShowFixation	ANTI	84	4	False	red	180	[1035 1515  405  675]	[405 885 405 675]
560.766	0.2	4705251	4705491	BlankScreen	ANTI	84	4	False	red	180	[1035 1515  405  675]	[405 885 405 675]
561.006	1.0	4705491	4706491	ELCue	ANTI	84	4	False	red	180	[1035 1515  405  675]	[405 885 405 675]
562.416	6.0	4706901	4712926	ShowFixation	VGS	85	4	False	lime	180	[405 885 405 675]	[1035 1515  405  675]
568.441	0.2	4712926	4713165	BlankScreen	VGS	85	4	False	lime	180	[405 885 405 675]	[1035 1515  405  675]
568.68	1.0	4713165	4714165	ELCue	VGS	85	4	False	lime	180	[405 885 405 675]	[1035 1515  405  675]
570.09	2.0	4714575	4716600	ShowFixation	ANTI	86	4	False	red	180	[1035 1515  405  675]	[405 885 405 675]
572.115	0.2	4716600	4716835	BlankScreen	ANTI	86	4	False	red	180	[1035 1515  405  675]	[405 885 405 675]
572.35	1.0	4716835	4717835	ELCue	ANTI	86	4	False	red	180	[1035 1515  405  675]	[405 885 405 675]
573.743	6.0	4718228	4724254	ShowFixation	ANTI	87	4	False	red	600	[ 90 570 405 675]	[1350 1830  405  675]
579.769	0.2	4724254	4724493	BlankScreen	ANTI	87	4	False	red	600	[ 90 570 405 675]	[1350 1830  405  675]
580.009	1.0	4724494	4725494	ELCue	ANTI	87	4	False	red	600	[ 90 570 405 675]	[1350 1830  405  675]
581.397	6.0	4725882	4731911	ShowFixation	VGS	88	4	False	lime	600	[1350 1830  405  675]	[ 90 570 405 675]
587.427	0.2	4731912	4732150	BlankScreen	VGS	88	4	False	lime	600	[1350 1830  405  675]	[ 90 570 405 675]
587.665	1.0	4732150	4733150	ELCue	VGS	88	4	False	lime	600	[1350 1830  405  675]	[ 90 570 405 675]
589.074	6.0	4733559	4739585	ShowFixation	VGS	89	4	False	lime	40	[ 90 570 405 675]	[1350 1830  405  675]
595.101	0.2	4739586	4739826	BlankScreen	VGS	89	4	False	lime	40	[ 90 570 405 675]	[1350 1830  405  675]
595.341	1.0	4739826	4740826	ELCue	VGS	89	4	False	lime	40	[ 90 570 405 675]	[1350 1830  405  675]
596.751	6.0	4741236	4747277	ShowFixation	VGS	90	4	False	lime	40	[ 90 570 405 675]	[1350 1830  405  675]
602.792	0.2	4747277	4747517	BlankScreen	VGS	90	4	False	lime	40	[ 90 570 405 675]	[1350 1830  405  675]
603.032	1.0	4747517	4748517	ELCue	VGS	90	4	False	lime	40	[ 90 570 405 675]	[1350 1830  405  675]
604.433	2.0	4748918	4750951	ShowFixation	VGS	91	4	False	lime	40	[ 90 570 405 675]	[1350 1830  405  675]
606.466	0.2	4750951	4751187	BlankScreen	VGS	91	4	False	lime	40	[ 90 570 405 675]	[1350 1830  405  675]
606.702	1.0	4751187	4752187	ELCue	VGS	91	4	False	lime	40	[ 90 570 405 675]	[1350 1830  405  675]
608.11	2.0	4752595	4754622	ShowFixation	VGS	92	4	False	lime	180	[405 885 405 675]	[1035 1515  405  675]
610.137	0.2	4754622	4754857	BlankScreen	VGS	92	4	False	lime	180	[405 885 405 675]	[1035 1515  405  675]
610.372	1.0	4754857	4755857	ELCue	VGS	92	4	False	lime	180	[405 885 405 675]	[1035 1515  405  675]
611.783	6.0	4756268	4762309	ShowFixation	VGS	93	4	False	lime	180	[405 885 405 675]	[1035 1515  405  675]
617.824	0.2	4762309	4762548	BlankScreen	VGS	93	4	False	lime	180	[405 885 405 675]	[1035 1515  405  675]
618.063	1.0	4762548	4763548	ELCue	VGS	93	4	False	lime	180	[405 885 405 675]	[1035 1515  405  675]
619.472	6.0	4763957	4769983	ShowFixation	VGS	94	4	False	lime	460	[1035 1515  405  675]	[405 885 405 675]
625.498	0.2	4769983	4770222	BlankScreen	VGS	94	4	False	lime	460	[1035 1515  405  675]	[405 885 405 675]
625.737	1.0	4770222	4771222	ELCue	VGS	94	4	False	lime	460	[1035 1515  405  675]	[405 885 405 675]
627.146	2.0	4771631	4773657	ShowFixation	VGS	95	4	False	lime	460	[1035 1515  405  675]	[405 885 405 675]
629.172	0.2	4773657	4773893	BlankScreen	VGS	95	4	False	lime	460	[1035 1515  405  675]	[405 885 405 675]
629.408	1.0	4773893	4774893	ELCue	VGS	95	4	False	lime	460	[1035 1515  405  675]	[405 885 405 675]
630.821	6.0	4775306	4781344	ShowFixation	ANTI	96	4	False	red	40	[1350 1830  405  675]	[ 90 570 405 675]
636.859	0.2	4781344	4781583	BlankScreen	ANTI	96	4	False	red	40	[1350 1830  405  675]	[ 90 570 405 675]
637.098	1.0	4781583	4782583	ELCue	ANTI	96	4	False	red	40	[1350 1830  405  675]	[ 90 570 405 675]
638.51	2.0	4782995	4785035	ShowFixation	ANTI	97	4	False	red	600	[ 90 570 405 675]	[1350 1830  405  675]
640.55	0.2	4785035	4785270	BlankScreen	ANTI	97	4	False	red	600	[ 90 570 405 675]	[1350 1830  405  675]
640.785	1.0	4785270	4786270	ELCue	ANTI	97	4	False	red	600	[ 90 570 405 675]	[1350 1830  405  675]
642.191	2.0	4786676	4788705	ShowFixation	VGS	98	4	False	lime	600	[1350 1830  405  675]	[ 90 570 405 675]
644.22	0.2	4788705	4788941	BlankScreen	VGS	98	4	False	lime	600	[1350 1830  405  675]	[ 90 570 405 675]
644.456	1.0	4788941	4789941	ELCue	VGS	98	4	False	lime	600	[1350 1830  405  675]	[ 90 570 405 675]
645.864	2.0	4790349	4792376	ShowFixation	ANTI	99	4	False	red	460	[405 885 405 675]	[1035 1515  405  675]
647.891	0.2	4792376	4792611	BlankScreen	ANTI	99	4	False	red	460	[405 885 405 675]	[1035 1515  405  675]
648.126	1.0	4792611	4793611	ELCue	ANTI	99	4	False	red	460	[405 885 405 675]	[1035 1515  405  675]
649.533	6.0	4794018	4800046	ShowFixation	VGS	100	4	False	lime	600	[1350 1830  405  675]	[ 90 570 405 675]
655.561	0.2	4800046	4800285	BlankScreen	VGS	100	4	False	lime	600	[1350 1830  405  675]	[ 90 570 405 675]
655.8	1.0	4800285	4801285	ELCue	VGS	100	4	False	lime	600	[1350 1830  405  675]	[ 90 570 405 675]
657.206	2.0	4801691	4803720	ShowFixation	ANTI	101	4	False	red	460	[405 885 405 675]	[1035 1515  405  675]
659.235	0.2	4803720	4803956	BlankScreen	ANTI	101	4	False	red	460	[405 885 405 675]	[1035 1515  405  675]
659.471	1.0	4803956	4804956	ELCue	ANTI	101	4	False	red	460	[405 885 405 675]	[1035 1515  405  675]
660.875	6.0	4805360	4811390	ShowFixation	ANTI	102	4	False	red	460	[405 885 405 675]	[1035 1515  405  675]
666.905	0.2	4811390	4811630	BlankScreen	ANTI	102	4	False	red	460	[405 885 405 675]	[1035 1515  405  675]
667.145	1.0	4811630	4812630	ELCue	ANTI	102	4	False	red	460	[405 885 405 675]	[1035 1515  405  675]
668.545	6.0	4813030	4819065	ShowFixation	ANTI	103	4	False	red	600	[ 90 570 405 675]	[1350 1830  405  675]
674.58	0.2	4819065	4819304	BlankScreen	ANTI	103	4	False	red	600	[ 90 570 405 675]	[1350 1830  405  675]
674.819	1.0	4819304	4820304	ELCue	ANTI	103	4	False	red	600	[ 90 570 405 675]	[1350 1830  405  675]
676.227	6.0	4820712	4826739	ShowFixation	ANTI	104	4	False	red	460	[405 885 405 675]	[1035 1515  405  675]
682.254	0.2	4826739	4826978	BlankScreen	ANTI	104	4	False	red	460	[405 885 405 675]	[1035 1515  405  675]
682.493	1.0	4826978	4827978	ELCue	ANTI	104	4	False	red	460	[405 885 405 675]	[1035 1515  405  675]
683.872	2.0	4828357	4830396	ShowFixation	ANTI	105	4	False	red	40	[1350 1830  405  675]	[ 90 570 405 675]
685.911	0.2	4830396	4830632	BlankScreen	ANTI	105	4	False	red	40	[1350 1830  405  675]	[ 90 570 405 675]
686.147	1.0	4830632	4831632	ELCue	ANTI	105	4	False	red	40	[1350 1830  405  675]	[ 90 570 405 675]
687.538	2.0	4832023	4834050	ShowFixation	VGS	106	4	False	lime	600	[1350 1830  405  675]	[ 90 570 405 675]
689.566	0.2	4834051	4834285	BlankScreen	VGS	106	4	False	lime	600	[1350 1830  405  675]	[ 90 570 405 675]
689.8	1.0	4834285	4835285	ELCue	VGS	106	4	False	lime	600	[1350 1830  405  675]	[ 90 570 405 675]
691.192	6.0	4835677	4841704	ShowFixation	ANTI	107	4	False	red	40	[1350 1830  405  675]	[ 90 570 405 675]
697.22	0.2	4841705	4841943	BlankScreen	ANTI	107	4	False	red	40	[1350 1830  405  675]	[ 90 570 405 675]
697.459	1.0	4841944	4842944	ELCue	ANTI	107	4	False	red	40	[1350 1830  405  675]	[ 90 570 405 675]
698.869	6.0	4843354	4849379	ShowFixation	VGS	108	4	False	lime	460	[1035 1515  405  675]	[405 885 405 675]
704.894	0.2	4849379	4849618	BlankScreen	VGS	108	4	False	lime	460	[1035 1515  405  675]	[405 885 405 675]
705.133	1.0	4849618	4850618	ELCue	VGS	108	4	False	lime	460	[1035 1515  405  675]	[405 885 405 675]
706.544	2.0	4851029	4853070	ShowFixation	VGS	109	4	False	lime	460	[1035 1515  405  675]	[405 885 405 675]
708.585	0.2	4853070	4853305	BlankScreen	VGS	109	4	False	lime	460	[1035 1515  405  675]	[405 885 405 675]
708.82	1.0	4853305	4854305	ELCue	VGS	109	4	False	lime	460	[1035 1515  405  675]	[405 885 405 675]
710.21	2.0	4854695	4856723	ShowFixation	ANTI	110	4	False	red	40	[1350 1830  405  675]	[ 90 570 405 675]
712.238	0.2	4856723	4856959	BlankScreen	ANTI	110	4	False	red	40	[1350 1830  405  675]	[ 90 570 405 675]
712.474	1.0	4856959	4857959	ELCue	ANTI	110	4	False	red	40	[1350 1830  405  675]	[ 90 570 405 675]
713.878	2.0	4858363	4860394	ShowFixation	VGS	111	4	False	lime	180	[405 885 405 675]	[1035 1515  405  675]
715.909	0.2	4860394	4860629	BlankScreen	VGS	111	4	False	lime	180	[405 885 405 675]	[1035 1515  405  675]
716.144	1.0	4860629	4861629	ELCue	VGS	111	4	False	lime	180	[405 885 405 675]	[1035 1515  405  675]
717.554	2.0	4862039	4864064	ShowFixation	ANTI	112	4	False	red	180	[1035 1515  405  675]	[405 885 405 675]
719.579	0.2	4864064	4864299	BlankScreen	ANTI	112	4	False	red	180	[1035 1515  405  675]	[405 885 405 675]
719.814	1.0	4864299	4865299	ELCue	ANTI	112	4	False	red	180	[1035 1515  405  675]	[405 885 405 675]
