participant_id	trial_type	stop_signal_delay	go_reaction_time	correct_go	successful_stop
sub-23735	Go	n/a	0.497	1	n/a
sub-23735	Stop	0.750	0.000	0	0
sub-23735	Go	n/a	0.633	1	n/a
sub-23735	Go	n/a	0.470	1	n/a
sub-23735	Go	n/a	0.712	1	n/a
sub-23735	Stop	0.800	0.000	0	0
sub-23735	Go	n/a	0.402	1	n/a
sub-23735	Stop	0.850	0.000	0	0
sub-23735	Stop	0.900	0.000	0	1
sub-23735	Go	n/a	0.765	1	n/a
sub-23735	Go	n/a	0.423	1	n/a
sub-23735	Stop	0.850	0.000	0	1
sub-23735	Go	n/a	0.747	1	n/a
sub-23735	Stop	0.800	0.000	0	0
sub-23735	Go	n/a	0.868	1	n/a
sub-23735	Go	n/a	0.579	1	n/a
sub-23735	Stop	0.750	0.000	0	0
sub-23735	Stop	0.800	0.000	0	0
sub-23735	Go	n/a	0.518	1	n/a
sub-23735	Stop	0.850	0.000	0	1
sub-23735	Go	n/a	0.553	1	n/a
sub-23735	Go	n/a	0.501	1	n/a
sub-23735	Go	n/a	0.419	1	n/a
sub-23735	Go	n/a	0.382	1	n/a
sub-23735	Go	n/a	0.438	1	n/a
sub-23735	Go	n/a	0.435	1	n/a
sub-23735	Stop	0.800	0.000	0	1
sub-23735	Go	n/a	0.452	1	n/a
sub-23735	Go	n/a	0.359	1	n/a
sub-23735	Go	n/a	0.390	1	n/a
sub-23735	Stop	0.750	0.000	0	0
sub-23735	Go	n/a	0.333	1	n/a
sub-23735	Go	n/a	0.372	1	n/a
sub-23735	Stop	0.800	0.000	0	0
sub-23735	Go	n/a	0.564	1	n/a
sub-23735	Go	n/a	0.334	1	n/a
sub-23735	Stop	0.850	0.000	0	1
sub-23735	Go	n/a	0.454	1	n/a
sub-23735	Go	n/a	0.288	1	n/a
sub-23735	Go	n/a	0.531	1	n/a
sub-23735	Go	n/a	0.438	1	n/a
sub-23735	Go	n/a	0.346	1	n/a
sub-23735	Go	n/a	0.352	1	n/a
sub-23735	Go	n/a	0.424	1	n/a
sub-23735	Go	n/a	0.574	1	n/a
sub-23735	Go	n/a	0.513	1	n/a
sub-23735	Go	n/a	0.479	1	n/a
sub-23735	Go	n/a	0.493	1	n/a
sub-23735	Stop	0.800	0.000	0	0
sub-23735	Go	n/a	0.422	1	n/a
sub-23735	Stop	0.850	0.000	0	1
sub-23735	Stop	0.800	0.000	0	1
sub-23735	Stop	0.750	0.000	0	0
sub-23735	Go	n/a	0.847	1	n/a
sub-23735	Go	n/a	0.990	1	n/a
sub-23735	Go	n/a	0.570	0	n/a
sub-23735	Go	n/a	0.534	1	n/a
sub-23735	Go	n/a	0.606	1	n/a
sub-23735	Stop	0.800	0.000	0	0
sub-23735	Go	n/a	0.434	1	n/a
sub-23735	Go	n/a	0.449	1	n/a
sub-23735	Go	n/a	0.457	1	n/a
sub-23735	Go	n/a	0.506	1	n/a
sub-23735	Go	n/a	0.391	1	n/a
sub-23735	Go	n/a	0.355	1	n/a
sub-23735	Go	n/a	0.452	1	n/a
sub-23735	Go	n/a	0.499	1	n/a
sub-23735	Go	n/a	0.619	1	n/a
sub-23735	Go	n/a	0.591	1	n/a
sub-23735	Go	n/a	0.594	1	n/a
sub-23735	Go	n/a	0.584	1	n/a
sub-23735	Stop	0.850	0.000	0	0
sub-23735	Go	n/a	0.535	1	n/a
sub-23735	Go	n/a	0.557	1	n/a
sub-23735	Go	n/a	0.462	1	n/a
sub-23735	Go	n/a	0.416	1	n/a
sub-23735	Go	n/a	0.535	1	n/a
sub-23735	Stop	0.900	0.000	0	1
sub-23735	Go	n/a	0.349	1	n/a
sub-23735	Go	n/a	0.638	1	n/a
sub-23735	Go	n/a	0.989	1	n/a
sub-23735	Stop	0.850	0.000	0	1
sub-23735	Go	n/a	0.460	1	n/a
sub-23735	Stop	0.800	0.000	0	1
sub-23735	Stop	0.750	0.000	0	0
sub-23735	Go	n/a	0.580	1	n/a
sub-23735	Stop	0.800	0.000	0	1
sub-23735	Go	n/a	0.739	1	n/a
sub-23735	Stop	0.750	0.000	0	1
sub-23735	Go	n/a	0.679	1	n/a
sub-23735	Stop	0.700	0.000	0	0
sub-23735	Go	n/a	0.455	1	n/a
sub-23735	Go	n/a	0.571	1	n/a
sub-23735	Stop	0.750	0.000	0	1
sub-23735	Go	n/a	0.324	1	n/a
sub-23735	Go	n/a	0.515	1	n/a
sub-23735	Go	n/a	0.707	1	n/a
sub-23735	Stop	0.700	0.000	0	1
sub-23735	Go	n/a	0.379	1	n/a
sub-23735	Go	n/a	0.435	1	n/a
sub-23735	Go	n/a	0.435	1	n/a
sub-23735	Go	n/a	0.421	1	n/a
sub-23735	Go	n/a	0.537	1	n/a
sub-23735	Go	n/a	0.530	1	n/a
sub-23735	Go	n/a	0.544	1	n/a
sub-23735	Go	n/a	0.325	1	n/a
sub-23735	Go	n/a	0.348	1	n/a
sub-23735	Go	n/a	0.364	1	n/a
sub-23735	Go	n/a	0.328	1	n/a
sub-23735	Go	n/a	0.342	1	n/a
sub-23735	Stop	0.750	0.000	0	1
sub-23735	Stop	0.700	0.000	0	0
sub-23735	Stop	0.750	0.000	0	1
sub-23735	Stop	0.700	0.000	0	0
sub-23735	Go	n/a	0.468	1	n/a
sub-23735	Go	n/a	0.393	1	n/a
sub-23735	Go	n/a	0.453	1	n/a
sub-23735	Go	n/a	0.630	1	n/a
sub-23735	Go	n/a	0.354	1	n/a
sub-23735	Go	n/a	0.346	1	n/a
sub-23735	Go	n/a	0.356	1	n/a
sub-23735	Go	n/a	0.340	1	n/a
sub-23735	Go	n/a	0.374	1	n/a
sub-23735	Go	n/a	0.300	1	n/a
sub-23735	Stop	0.750	0.000	0	0
sub-23735	Stop	0.800	0.000	0	0
sub-23735	Stop	0.850	0.000	0	1
sub-23735	Go	n/a	0.418	1	n/a
sub-23735	Go	n/a	0.576	1	n/a
sub-23735	Go	n/a	0.450	1	n/a
sub-23735	Go	n/a	0.519	1	n/a
sub-23735	Go	n/a	0.474	1	n/a
sub-23735	Stop	0.800	0.000	0	1
sub-23735	Go	n/a	0.357	1	n/a
sub-23735	Go	n/a	0.346	1	n/a
sub-23735	Go	n/a	0.600	1	n/a
sub-23735	Stop	0.750	0.000	0	0
sub-23735	Go	n/a	0.629	1	n/a
sub-23735	Go	n/a	0.358	1	n/a
sub-23735	Go	n/a	0.333	1	n/a
sub-23735	Go	n/a	0.347	1	n/a
sub-23735	Go	n/a	0.361	1	n/a
sub-23735	Stop	0.800	0.000	0	1
sub-23735	Go	n/a	0.350	1	n/a
sub-23735	Go	n/a	0.256	1	n/a
sub-23735	Stop	0.750	0.000	0	0
sub-23735	Go	n/a	0.403	1	n/a
sub-23735	Go	n/a	0.408	1	n/a
sub-23735	Go	n/a	0.400	1	n/a
sub-23735	Stop	0.800	0.000	0	1
sub-23735	Go	n/a	0.690	1	n/a
sub-23735	Go	n/a	0.317	1	n/a
sub-23735	Stop	0.750	0.000	0	1
sub-23735	Stop	0.700	0.000	0	0
sub-23735	Go	n/a	0.628	1	n/a
sub-23735	Go	n/a	0.366	1	n/a
sub-23735	Go	n/a	0.493	1	n/a
sub-23735	Go	n/a	0.362	1	n/a
sub-23735	Go	n/a	0.601	1	n/a
sub-23735	Go	n/a	0.474	1	n/a
sub-23735	Stop	0.750	0.000	0	0
sub-23735	Go	n/a	0.372	1	n/a
sub-23735	Go	n/a	0.248	1	n/a
sub-23735	Stop	0.800	0.000	0	0
sub-23735	Stop	0.850	0.000	0	1
sub-23735	Go	n/a	0.383	1	n/a
sub-23735	Go	n/a	0.602	1	n/a
sub-23735	Go	n/a	0.385	1	n/a
sub-23735	Go	n/a	0.279	1	n/a
sub-23735	Go	n/a	0.322	1	n/a
sub-23735	Go	n/a	0.356	1	n/a
sub-23735	Go	n/a	0.401	1	n/a
sub-23735	Go	n/a	0.392	1	n/a
sub-23735	Go	n/a	0.408	0	n/a
sub-23735	Stop	0.800	0.000	0	0
sub-23735	Go	n/a	0.447	1	n/a
sub-23735	Go	n/a	0.493	1	n/a
sub-23735	Stop	0.850	0.000	0	1
sub-23735	Go	n/a	0.389	1	n/a
sub-23735	Go	n/a	0.380	1	n/a
sub-23735	Go	n/a	0.534	1	n/a
sub-23735	Go	n/a	0.589	1	n/a
sub-23735	Go	n/a	0.512	1	n/a
sub-23735	Stop	0.800	0.000	0	1
sub-23735	Go	n/a	0.345	1	n/a
sub-23735	Stop	0.750	0.000	0	1
sub-23735	Stop	0.700	0.000	0	1
sub-23735	Go	n/a	0.607	1	n/a
sub-23735	Go	n/a	0.392	1	n/a
sub-23735	Go	n/a	0.417	1	n/a
sub-23735	Go	n/a	0.518	1	n/a
sub-23735	Go	n/a	0.456	1	n/a
sub-23735	Stop	0.750	0.000	0	0
sub-23735	Go	n/a	0.452	1	n/a
sub-23735	Go	n/a	0.419	1	n/a
sub-23735	Go	n/a	0.243	1	n/a
sub-23735	Go	n/a	0.305	1	n/a
sub-23735	Stop	0.800	0.000	0	0
sub-23735	Go	n/a	0.429	1	n/a
sub-23735	Go	n/a	0.298	1	n/a
sub-23735	Go	n/a	0.363	1	n/a
sub-23735	Go	n/a	0.438	1	n/a
sub-23735	Go	n/a	0.345	1	n/a
sub-23735	Stop	0.850	0.000	0	1
sub-23735	Go	n/a	0.313	1	n/a
sub-23735	Go	n/a	0.482	1	n/a
sub-23735	Stop	0.800	0.000	0	0
sub-23735	Go	n/a	0.392	1	n/a
sub-23735	Go	n/a	0.533	1	n/a
sub-23735	Go	n/a	0.431	1	n/a
sub-23735	Go	n/a	0.360	1	n/a
sub-23735	Stop	0.850	0.000	0	0
sub-23735	Go	n/a	0.298	1	n/a
sub-23735	Stop	0.900	0.000	0	0
sub-23735	Go	n/a	0.576	1	n/a
sub-23735	Stop	0.950	0.000	0	1
sub-23735	Go	n/a	0.788	1	n/a
sub-23735	Go	n/a	0.361	1	n/a
sub-23735	Go	n/a	0.704	1	n/a
sub-23735	Go	n/a	0.458	1	n/a
sub-23735	Go	n/a	0.345	1	n/a
sub-23735	Go	n/a	0.658	1	n/a
sub-23735	Go	n/a	0.463	0	n/a
sub-23735	Stop	0.900	0.000	0	0
sub-23735	Go	n/a	0.507	1	n/a
sub-23735	Go	n/a	0.466	1	n/a
sub-23735	Go	n/a	0.393	1	n/a
sub-23735	Go	n/a	0.565	1	n/a
sub-23735	Go	n/a	0.499	1	n/a
sub-23735	Go	n/a	0.613	1	n/a
sub-23735	Go	n/a	0.584	1	n/a
sub-23735	Stop	0.950	0.000	0	0
sub-23735	Go	n/a	0.595	1	n/a
sub-23735	Go	n/a	0.827	1	n/a
sub-23735	Go	n/a	0.406	1	n/a
sub-23735	Stop	1.000	0.000	0	1
sub-23735	Go	n/a	0.425	1	n/a
sub-23735	Go	n/a	0.533	1	n/a
sub-23735	Go	n/a	0.484	1	n/a
sub-23735	Go	n/a	0.512	1	n/a
sub-23735	Go	n/a	0.486	1	n/a
sub-23735	Stop	0.950	0.000	0	1
sub-23735	Go	n/a	0.472	1	n/a
sub-23735	Go	n/a	0.418	1	n/a
sub-23735	Stop	0.900	0.000	0	1
sub-23735	Stop	0.850	0.000	0	1
sub-23735	Stop	0.800	0.000	0	0
sub-23735	Go	n/a	0.366	1	n/a
sub-23735	Go	n/a	0.362	1	n/a
sub-23735	Stop	0.850	0.000	0	0
sub-23735	Go	n/a	0.814	1	n/a
sub-23735	Go	n/a	0.813	1	n/a
sub-23735	Go	n/a	0.912	1	n/a
sub-23735	Go	n/a	0.574	1	n/a
sub-23735	Go	n/a	0.429	1	n/a
sub-23735	Go	n/a	0.534	1	n/a
sub-23735	Go	n/a	0.546	1	n/a
sub-23735	Go	n/a	0.525	1	n/a
sub-23735	Go	n/a	0.362	1	n/a
sub-23735	Stop	0.900	0.000	0	0
sub-23735	Stop	0.950	0.000	0	0
sub-23735	Go	n/a	0.623	1	n/a
sub-23735	Go	n/a	0.600	1	n/a
sub-23735	Go	n/a	0.660	1	n/a
sub-23735	Go	n/a	0.411	1	n/a
sub-23735	Stop	1.000	0.000	0	1
sub-23735	Go	n/a	0.476	1	n/a
sub-23735	Go	n/a	0.442	1	n/a
sub-23735	Go	n/a	0.521	1	n/a
sub-23735	Stop	0.950	0.000	0	1
sub-23735	Go	n/a	0.333	1	n/a
sub-23735	Go	n/a	0.452	1	n/a
sub-23735	Stop	0.900	0.000	0	1
sub-23735	Stop	0.850	0.000	0	1
sub-23735	Go	n/a	0.541	1	n/a
sub-23735	Go	n/a	0.350	1	n/a
sub-23735	Go	n/a	0.309	1	n/a
sub-23735	Stop	0.800	0.000	0	0
sub-23735	Go	n/a	0.355	1	n/a
sub-23735	Go	n/a	0.376	1	n/a
sub-23735	Go	n/a	0.586	1	n/a
sub-23735	Stop	0.750	0.000	0	0
sub-23735	Go	n/a	0.408	1	n/a
sub-23735	Go	n/a	0.364	1	n/a
sub-23735	Stop	0.800	0.000	0	0
sub-23735	Go	n/a	0.617	1	n/a
sub-23735	Go	n/a	0.341	1	n/a
sub-23735	Go	n/a	0.432	1	n/a
sub-23735	Go	n/a	0.509	1	n/a
sub-23735	Go	n/a	0.396	1	n/a
sub-23735	Stop	0.850	0.000	0	1
sub-23735	Go	n/a	0.455	1	n/a
sub-23735	Go	n/a	0.353	1	n/a
sub-23735	Go	n/a	0.367	1	n/a
sub-23735	Stop	0.800	0.000	0	0
sub-23735	Go	n/a	0.369	1	n/a
sub-23735	Go	n/a	0.377	1	n/a
sub-23735	Go	n/a	0.519	1	n/a
sub-23735	Go	n/a	0.470	1	n/a
sub-23735	Stop	0.850	0.000	0	0
sub-23735	Stop	0.900	0.000	0	1
sub-23735	Go	n/a	0.405	1	n/a
sub-23735	Stop	0.850	0.000	0	1
sub-23735	Go	n/a	0.394	1	n/a
sub-23735	Stop	0.800	0.000	0	1
sub-23735	Go	n/a	0.781	1	n/a
sub-23735	Go	n/a	0.422	1	n/a
sub-23735	Go	n/a	0.394	1	n/a
sub-23735	Stop	0.750	0.000	0	0
sub-23735	Go	n/a	0.439	1	n/a
sub-23735	Stop	0.800	0.000	0	1
sub-23735	Go	n/a	0.610	1	n/a
sub-23735	Go	n/a	0.525	1	n/a
sub-23735	Go	n/a	0.403	1	n/a
sub-23735	Go	n/a	0.391	1	n/a
sub-23735	Stop	0.750	0.000	0	0
sub-23735	Go	n/a	0.367	1	n/a
sub-23735	Go	n/a	0.455	1	n/a
sub-23735	Go	n/a	0.569	0	n/a
sub-23735	Go	n/a	0.338	1	n/a
sub-23735	Stop	0.800	0.000	0	0
sub-23735	Go	n/a	0.437	1	n/a
sub-23735	Stop	0.850	0.000	0	1
sub-23735	Go	n/a	0.540	1	n/a
sub-23735	Go	n/a	0.367	1	n/a
sub-23735	Go	n/a	0.352	1	n/a
sub-23735	Go	n/a	0.482	1	n/a
sub-23735	Go	n/a	0.491	1	n/a
sub-23735	Go	n/a	0.532	1	n/a
sub-23735	Go	n/a	0.531	1	n/a
sub-23735	Stop	0.800	0.000	0	0
sub-23735	Go	n/a	0.371	1	n/a
sub-23735	Go	n/a	0.350	1	n/a
sub-23735	Stop	0.850	0.000	0	1
sub-23735	Go	n/a	0.395	1	n/a
sub-23735	Stop	0.800	0.000	0	0
sub-23735	Go	n/a	0.502	1	n/a
sub-23735	Stop	0.850	0.000	0	0
sub-23735	Go	n/a	0.395	1	n/a
sub-23735	Go	n/a	0.566	1	n/a
sub-23735	Go	n/a	0.432	1	n/a
sub-23735	Stop	0.900	0.000	0	0
sub-23735	Go	n/a	0.369	1	n/a
sub-23735	Go	n/a	0.808	1	n/a
sub-23735	Go	n/a	0.783	1	n/a
sub-23735	Go	n/a	0.491	1	n/a
sub-23735	Go	n/a	0.545	1	n/a
sub-23735	Go	n/a	0.560	1	n/a
sub-23735	Stop	0.950	0.000	0	0
sub-23735	Stop	1.000	0.000	0	1
sub-23735	Go	n/a	0.395	1	n/a
sub-23735	Go	n/a	0.573	1	n/a
sub-23735	Go	n/a	0.437	1	n/a
sub-23735	Stop	0.950	0.000	0	1
sub-23735	Go	n/a	0.386	1	n/a
sub-23735	Go	n/a	0.546	1	n/a
sub-23735	Go	n/a	0.932	0	n/a
sub-23735	Go	n/a	0.387	1	n/a
sub-23735	Go	n/a	0.410	0	n/a
sub-23735	Go	n/a	0.376	1	n/a
sub-23735	Go	n/a	0.398	1	n/a
sub-23735	Go	n/a	0.361	1	n/a
sub-23735	Go	n/a	0.568	1	n/a
sub-23735	Go	n/a	0.382	1	n/a
sub-23735	Go	n/a	0.381	1	n/a
sub-23735	Stop	0.900	0.000	0	1
sub-23735	Go	n/a	0.450	1	n/a
sub-23735	Go	n/a	0.555	1	n/a
sub-23735	Stop	0.750	0.000	0	0
sub-23735	Stop	0.800	0.000	0	1
sub-23735	Go	n/a	0.402	1	n/a
sub-23735	Go	n/a	0.480	1	n/a
sub-23735	Stop	0.750	0.000	0	0
sub-23735	Go	n/a	0.370	1	n/a
sub-23735	Go	n/a	0.430	1	n/a
sub-23735	Go	n/a	0.578	1	n/a
sub-23735	Go	n/a	0.379	1	n/a
sub-23735	Go	n/a	0.348	1	n/a
sub-23735	Go	n/a	0.374	1	n/a
sub-23735	Go	n/a	0.345	1	n/a
sub-23735	Go	n/a	0.369	1	n/a
sub-23735	Stop	0.800	0.000	0	1
sub-23735	Go	n/a	0.502	1	n/a
sub-23735	Go	n/a	0.523	1	n/a
sub-23735	Go	n/a	0.390	1	n/a
sub-23735	Go	n/a	0.439	1	n/a
sub-23735	Go	n/a	0.358	1	n/a
sub-23735	Stop	0.750	0.000	0	0
sub-23735	Go	n/a	0.385	1	n/a
sub-23735	Go	n/a	0.341	1	n/a
sub-23735	Go	n/a	0.242	1	n/a
sub-23735	Stop	0.800	0.000	0	1
sub-23735	Stop	0.750	0.000	0	1
sub-23735	Go	n/a	0.494	1	n/a
sub-23735	Go	n/a	0.384	1	n/a
sub-23735	Stop	0.700	0.000	0	1
sub-23735	Go	n/a	0.657	1	n/a
sub-23735	Go	n/a	0.434	1	n/a
sub-23735	Go	n/a	0.504	1	n/a
sub-23735	Stop	0.650	0.000	0	0
sub-23735	Go	n/a	0.502	1	n/a
sub-23735	Stop	0.700	0.000	0	1
sub-23735	Go	n/a	0.464	1	n/a
sub-23735	Stop	0.650	0.000	0	0
sub-23735	Go	n/a	0.517	1	n/a
sub-23735	Go	n/a	0.505	1	n/a
sub-23735	Stop	0.700	0.000	0	1
sub-23735	Go	n/a	0.566	1	n/a
sub-23735	Go	n/a	0.403	1	n/a
sub-23735	Go	n/a	0.380	1	n/a
sub-23735	Go	n/a	0.403	1	n/a
sub-23735	Go	n/a	0.693	1	n/a
sub-23735	Go	n/a	0.667	1	n/a
sub-23735	Go	n/a	0.389	1	n/a
sub-23735	Go	n/a	0.464	1	n/a
sub-23735	Stop	0.650	0.000	0	0
sub-23735	Go	n/a	0.374	1	n/a
sub-23735	Go	n/a	0.615	1	n/a
sub-23735	Go	n/a	0.515	1	n/a
sub-23735	Go	n/a	0.516	1	n/a
sub-23735	Go	n/a	0.724	1	n/a
sub-23735	Go	n/a	0.701	1	n/a
sub-23735	Go	n/a	0.689	1	n/a
sub-23735	Go	n/a	0.799	1	n/a
sub-23735	Go	n/a	0.725	1	n/a
sub-23735	Go	n/a	0.000	0	n/a
sub-23735	Go	n/a	0.552	1	n/a
sub-23735	Go	n/a	0.378	1	n/a
sub-23735	Stop	0.700	0.000	0	0
sub-23735	Go	n/a	0.668	0	n/a
sub-23735	Stop	0.750	0.000	0	0
sub-23735	Go	n/a	0.495	1	n/a
sub-23735	Go	n/a	0.416	1	n/a
sub-23735	Go	n/a	0.384	1	n/a
sub-23735	Stop	0.800	0.000	0	0
sub-23735	Go	n/a	0.300	1	n/a
sub-23735	Go	n/a	0.537	1	n/a
sub-23735	Stop	0.850	0.000	0	1
sub-23735	Go	n/a	0.768	1	n/a
sub-23735	Stop	0.800	0.000	0	0
sub-23735	Go	n/a	0.479	1	n/a
sub-23735	Stop	0.850	0.000	0	1
sub-23735	Go	n/a	0.554	1	n/a
sub-23735	Go	n/a	0.539	1	n/a
sub-23735	Go	n/a	0.452	1	n/a
sub-23735	Go	n/a	0.397	1	n/a
sub-23735	Stop	0.800	0.000	0	0
sub-23735	Go	n/a	0.421	1	n/a
sub-23735	Go	n/a	0.472	1	n/a
sub-23735	Go	n/a	0.528	1	n/a
sub-23735	Go	n/a	0.694	1	n/a
sub-23735	Go	n/a	0.344	1	n/a
sub-23735	Go	n/a	0.635	1	n/a
sub-23735	Go	n/a	0.575	1	n/a
sub-23735	Stop	0.850	0.000	0	1
sub-23735	Stop	0.800	0.000	0	0
