onset	duration	startTime	stopTime	eventIdentifier	trial_type	trial_number	block_number	is_practice	fixation_color	cue_side	aoi_correct	aoi_incorrect
0.146	2.0	487113	489149	ShowFixation	VGS	1	1	True	lime	460	[1035 1515  405  675]	[405 885 405 675]
2.183	0.2	489150	489384	BlankScreen	VGS	1	1	True	lime	460	[1035 1515  405  675]	[405 885 405 675]
2.418	1.0	489385	490425	ELCue	VGS	1	1	True	lime	460	[1035 1515  405  675]	[405 885 405 675]
3.865	2.0	490832	493470	ShowFixation	ANTI	2	1	True	red	180	[1035 1515  405  675]	[405 885 405 675]
6.503	0.2	493470	493706	BlankScreen	ANTI	2	1	True	red	180	[1035 1515  405  675]	[405 885 405 675]
6.739	1.0	493706	494744	ELCue	ANTI	2	1	True	red	180	[1035 1515  405  675]	[405 885 405 675]
8.151	2.0	495118	497791	ShowFixation	VGS	3	1	True	lime	40	[ 90 570 405 675]	[1350 1830  405  675]
10.824	0.2	497791	498027	BlankScreen	VGS	3	1	True	lime	40	[ 90 570 405 675]	[1350 1830  405  675]
11.06	1.0	498027	499066	ELCue	VGS	3	1	True	lime	40	[ 90 570 405 675]	[1350 1830  405  675]
12.504	6.0	499471	506096	ShowFixation	VGS	4	1	True	lime	180	[405 885 405 675]	[1035 1515  405  675]
19.129	0.2	506096	506335	BlankScreen	VGS	4	1	True	lime	180	[405 885 405 675]	[1035 1515  405  675]
19.368	1.0	506335	507375	ELCue	VGS	4	1	True	lime	180	[405 885 405 675]	[1035 1515  405  675]
20.811	6.0	507778	514404	ShowFixation	ANTI	5	1	True	red	460	[405 885 405 675]	[1035 1515  405  675]
27.437	0.2	514404	514643	BlankScreen	ANTI	5	1	True	red	460	[405 885 405 675]	[1035 1515  405  675]
27.676	1.0	514643	515680	ELCue	ANTI	5	1	True	red	460	[405 885 405 675]	[1035 1515  405  675]
29.119	2.0	516086	518729	ShowFixation	ANTI	6	1	True	red	460	[405 885 405 675]	[1035 1515  405  675]
31.762	0.2	518729	518964	BlankScreen	ANTI	6	1	True	red	460	[405 885 405 675]	[1035 1515  405  675]
31.997	1.0	518964	520005	ELCue	ANTI	6	1	True	red	460	[405 885 405 675]	[1035 1515  405  675]
33.443	6.0	520410	527050	ShowFixation	ANTI	7	1	True	red	600	[ 90 570 405 675]	[1350 1830  405  675]
40.083	0.2	527050	527289	BlankScreen	ANTI	7	1	True	red	600	[ 90 570 405 675]	[1350 1830  405  675]
40.322	1.0	527289	528326	ELCue	ANTI	7	1	True	red	600	[ 90 570 405 675]	[1350 1830  405  675]
41.753	6.0	528720	535341	ShowFixation	ANTI	8	1	True	red	180	[1035 1515  405  675]	[405 885 405 675]
48.374	0.2	535341	535580	BlankScreen	ANTI	8	1	True	red	180	[1035 1515  405  675]	[405 885 405 675]
48.613	1.0	535580	536618	ELCue	ANTI	8	1	True	red	180	[1035 1515  405  675]	[405 885 405 675]
50.062	6.0	537029	543666	ShowFixation	VGS	9	1	True	lime	600	[1350 1830  405  675]	[ 90 570 405 675]
56.699	0.2	543666	543905	BlankScreen	VGS	9	1	True	lime	600	[1350 1830  405  675]	[ 90 570 405 675]
56.938	1.0	543905	544945	ELCue	VGS	9	1	True	lime	600	[1350 1830  405  675]	[ 90 570 405 675]
58.385	2.0	545352	547974	ShowFixation	VGS	10	1	True	lime	180	[405 885 405 675]	[1035 1515  405  675]
61.007	0.2	547974	548193	BlankScreen	VGS	10	1	True	lime	180	[405 885 405 675]	[1035 1515  405  675]
61.226	1.0	548193	549217	ELCue	VGS	10	1	True	lime	180	[405 885 405 675]	[1035 1515  405  675]
62.653	6.0	549620	556262	ShowFixation	VGS	11	1	True	lime	40	[ 90 570 405 675]	[1350 1830  405  675]
69.295	0.2	556262	556501	BlankScreen	VGS	11	1	True	lime	40	[ 90 570 405 675]	[1350 1830  405  675]
69.534	1.0	556501	557542	ELCue	VGS	11	1	True	lime	40	[ 90 570 405 675]	[1350 1830  405  675]
71.069	6.0	558036	564587	ShowFixation	VGS	12	1	True	lime	460	[1035 1515  405  675]	[405 885 405 675]
77.62	0.2	564587	564826	BlankScreen	VGS	12	1	True	lime	460	[1035 1515  405  675]	[405 885 405 675]
77.859	1.0	564826	565867	ELCue	VGS	12	1	True	lime	460	[1035 1515  405  675]	[405 885 405 675]
79.305	6.0	566272	572895	ShowFixation	ANTI	13	1	True	red	40	[1350 1830  405  675]	[ 90 570 405 675]
85.928	0.2	572895	573134	BlankScreen	ANTI	13	1	True	red	40	[1350 1830  405  675]	[ 90 570 405 675]
86.167	1.0	573134	574175	ELCue	ANTI	13	1	True	red	40	[1350 1830  405  675]	[ 90 570 405 675]
87.61	2.0	574577	577220	ShowFixation	ANTI	14	1	True	red	40	[1350 1830  405  675]	[ 90 570 405 675]
90.253	0.2	577220	577455	BlankScreen	ANTI	14	1	True	red	40	[1350 1830  405  675]	[ 90 570 405 675]
90.488	1.0	577455	578496	ELCue	ANTI	14	1	True	red	40	[1350 1830  405  675]	[ 90 570 405 675]
91.934	2.0	578901	581541	ShowFixation	ANTI	15	1	True	red	600	[ 90 570 405 675]	[1350 1830  405  675]
94.574	0.2	581541	581776	BlankScreen	ANTI	15	1	True	red	600	[ 90 570 405 675]	[1350 1830  405  675]
94.809	1.0	581776	582817	ELCue	ANTI	15	1	True	red	600	[ 90 570 405 675]	[1350 1830  405  675]
96.253	2.0	583220	585862	ShowFixation	VGS	16	1	True	lime	600	[1350 1830  405  675]	[ 90 570 405 675]
98.895	0.2	585862	586097	BlankScreen	VGS	16	1	True	lime	600	[1350 1830  405  675]	[ 90 570 405 675]
99.13	1.0	586097	587138	ELCue	VGS	16	1	True	lime	600	[1350 1830  405  675]	[ 90 570 405 675]
141.667	2.0	628634	630673	ShowFixation	VGS	17	2	False	lime	460	[1035 1515  405  675]	[405 885 405 675]
143.706	0.2	630673	630909	BlankScreen	VGS	17	2	False	lime	460	[1035 1515  405  675]	[405 885 405 675]
143.942	1.0	630909	631909	ELCue	VGS	17	2	False	lime	460	[1035 1515  405  675]	[405 885 405 675]
145.348	2.0	632315	634344	ShowFixation	VGS	18	2	False	lime	600	[1350 1830  405  675]	[ 90 570 405 675]
147.377	0.2	634344	634579	BlankScreen	VGS	18	2	False	lime	600	[1350 1830  405  675]	[ 90 570 405 675]
147.612	1.0	634579	635579	ELCue	VGS	18	2	False	lime	600	[1350 1830  405  675]	[ 90 570 405 675]
149.018	6.0	635985	642014	ShowFixation	ANTI	19	2	False	red	40	[1350 1830  405  675]	[ 90 570 405 675]
155.047	0.2	642014	642253	BlankScreen	ANTI	19	2	False	red	40	[1350 1830  405  675]	[ 90 570 405 675]
155.286	1.0	642253	643253	ELCue	ANTI	19	2	False	red	40	[1350 1830  405  675]	[ 90 570 405 675]
156.696	6.0	643663	649688	ShowFixation	VGS	20	2	False	lime	180	[405 885 405 675]	[1035 1515  405  675]
162.721	0.2	649688	649928	BlankScreen	VGS	20	2	False	lime	180	[405 885 405 675]	[1035 1515  405  675]
162.961	1.0	649928	650928	ELCue	VGS	20	2	False	lime	180	[405 885 405 675]	[1035 1515  405  675]
164.371	6.0	651338	657379	ShowFixation	ANTI	21	2	False	red	40	[1350 1830  405  675]	[ 90 570 405 675]
170.412	0.2	657379	657619	BlankScreen	ANTI	21	2	False	red	40	[1350 1830  405  675]	[ 90 570 405 675]
170.652	1.0	657619	658619	ELCue	ANTI	21	2	False	red	40	[1350 1830  405  675]	[ 90 570 405 675]
172.06	2.0	659027	661053	ShowFixation	VGS	22	2	False	lime	40	[ 90 570 405 675]	[1350 1830  405  675]
174.086	0.2	661053	661289	BlankScreen	VGS	22	2	False	lime	40	[ 90 570 405 675]	[1350 1830  405  675]
174.322	1.0	661289	662289	ELCue	VGS	22	2	False	lime	40	[ 90 570 405 675]	[1350 1830  405  675]
175.726	6.0	662693	668724	ShowFixation	ANTI	23	2	False	red	180	[1035 1515  405  675]	[405 885 405 675]
181.757	0.2	668724	668963	BlankScreen	ANTI	23	2	False	red	180	[1035 1515  405  675]	[405 885 405 675]
181.996	1.0	668963	669963	ELCue	ANTI	23	2	False	red	180	[1035 1515  405  675]	[405 885 405 675]
183.374	6.0	670341	676381	ShowFixation	ANTI	24	2	False	red	600	[ 90 570 405 675]	[1350 1830  405  675]
189.414	0.2	676381	676621	BlankScreen	ANTI	24	2	False	red	600	[ 90 570 405 675]	[1350 1830  405  675]
189.654	1.0	676621	677621	ELCue	ANTI	24	2	False	red	600	[ 90 570 405 675]	[1350 1830  405  675]
191.057	6.0	678024	684056	ShowFixation	VGS	25	2	False	lime	600	[1350 1830  405  675]	[ 90 570 405 675]
197.089	0.2	684056	684295	BlankScreen	VGS	25	2	False	lime	600	[1350 1830  405  675]	[ 90 570 405 675]
197.328	1.0	684295	685295	ELCue	VGS	25	2	False	lime	600	[1350 1830  405  675]	[ 90 570 405 675]
198.737	2.0	685704	687730	ShowFixation	ANTI	26	2	False	red	180	[1035 1515  405  675]	[405 885 405 675]
200.763	0.2	687730	687965	BlankScreen	ANTI	26	2	False	red	180	[1035 1515  405  675]	[405 885 405 675]
200.998	1.0	687965	688965	ELCue	ANTI	26	2	False	red	180	[1035 1515  405  675]	[405 885 405 675]
202.403	2.0	689370	691400	ShowFixation	ANTI	27	2	False	red	600	[ 90 570 405 675]	[1350 1830  405  675]
204.433	0.2	691400	691635	BlankScreen	ANTI	27	2	False	red	600	[ 90 570 405 675]	[1350 1830  405  675]
204.668	1.0	691635	692635	ELCue	ANTI	27	2	False	red	600	[ 90 570 405 675]	[1350 1830  405  675]
206.073	2.0	693040	695070	ShowFixation	VGS	28	2	False	lime	460	[1035 1515  405  675]	[405 885 405 675]
208.103	0.2	695070	695306	BlankScreen	VGS	28	2	False	lime	460	[1035 1515  405  675]	[405 885 405 675]
208.339	1.0	695306	696306	ELCue	VGS	28	2	False	lime	460	[1035 1515  405  675]	[405 885 405 675]
209.727	6.0	696694	702724	ShowFixation	VGS	29	2	False	lime	460	[1035 1515  405  675]	[405 885 405 675]
215.757	0.2	702724	702963	BlankScreen	VGS	29	2	False	lime	460	[1035 1515  405  675]	[405 885 405 675]
215.996	1.0	702963	703963	ELCue	VGS	29	2	False	lime	460	[1035 1515  405  675]	[405 885 405 675]
217.402	6.0	704369	710398	ShowFixation	ANTI	30	2	False	red	460	[405 885 405 675]	[1035 1515  405  675]
223.431	0.2	710398	710638	BlankScreen	ANTI	30	2	False	red	460	[405 885 405 675]	[1035 1515  405  675]
223.671	1.0	710638	711638	ELCue	ANTI	30	2	False	red	460	[405 885 405 675]	[1035 1515  405  675]
225.041	6.0	712008	718039	ShowFixation	ANTI	31	2	False	red	600	[ 90 570 405 675]	[1350 1830  405  675]
231.072	0.2	718039	718279	BlankScreen	ANTI	31	2	False	red	600	[ 90 570 405 675]	[1350 1830  405  675]
231.312	1.0	718279	719279	ELCue	ANTI	31	2	False	red	600	[ 90 570 405 675]	[1350 1830  405  675]
232.721	2.0	719688	721713	ShowFixation	ANTI	32	2	False	red	460	[405 885 405 675]	[1035 1515  405  675]
234.747	0.2	721714	721949	BlankScreen	ANTI	32	2	False	red	460	[405 885 405 675]	[1035 1515  405  675]
234.983	1.0	721950	722950	ELCue	ANTI	32	2	False	red	460	[405 885 405 675]	[1035 1515  405  675]
236.388	2.0	723355	725384	ShowFixation	ANTI	33	2	False	red	600	[ 90 570 405 675]	[1350 1830  405  675]
238.417	0.2	725384	725619	BlankScreen	ANTI	33	2	False	red	600	[ 90 570 405 675]	[1350 1830  405  675]
238.653	1.0	725620	726620	ELCue	ANTI	33	2	False	red	600	[ 90 570 405 675]	[1350 1830  405  675]
240.043	2.0	727010	729038	ShowFixation	ANTI	34	2	False	red	40	[1350 1830  405  675]	[ 90 570 405 675]
242.071	0.2	729038	729274	BlankScreen	ANTI	34	2	False	red	40	[1350 1830  405  675]	[ 90 570 405 675]
242.307	1.0	729274	730274	ELCue	ANTI	34	2	False	red	40	[1350 1830  405  675]	[ 90 570 405 675]
243.714	6.0	730681	736709	ShowFixation	VGS	35	2	False	lime	40	[ 90 570 405 675]	[1350 1830  405  675]
249.742	0.2	736709	736948	BlankScreen	VGS	35	2	False	lime	40	[ 90 570 405 675]	[1350 1830  405  675]
249.981	1.0	736948	737948	ELCue	VGS	35	2	False	lime	40	[ 90 570 405 675]	[1350 1830  405  675]
251.384	2.0	738351	740383	ShowFixation	ANTI	36	2	False	red	180	[1035 1515  405  675]	[405 885 405 675]
253.416	0.2	740383	740618	BlankScreen	ANTI	36	2	False	red	180	[1035 1515  405  675]	[405 885 405 675]
253.651	1.0	740618	741618	ELCue	ANTI	36	2	False	red	180	[1035 1515  405  675]	[405 885 405 675]
255.06	6.0	742027	748053	ShowFixation	VGS	37	2	False	lime	40	[ 90 570 405 675]	[1350 1830  405  675]
261.086	0.2	748053	748292	BlankScreen	VGS	37	2	False	lime	40	[ 90 570 405 675]	[1350 1830  405  675]
261.325	1.0	748292	749292	ELCue	VGS	37	2	False	lime	40	[ 90 570 405 675]	[1350 1830  405  675]
262.715	6.0	749682	755711	ShowFixation	VGS	38	2	False	lime	460	[1035 1515  405  675]	[405 885 405 675]
268.744	0.2	755711	755950	BlankScreen	VGS	38	2	False	lime	460	[1035 1515  405  675]	[405 885 405 675]
268.983	1.0	755950	756950	ELCue	VGS	38	2	False	lime	460	[1035 1515  405  675]	[405 885 405 675]
270.387	6.0	757354	763385	ShowFixation	VGS	39	2	False	lime	600	[1350 1830  405  675]	[ 90 570 405 675]
276.418	0.2	763385	763624	BlankScreen	VGS	39	2	False	lime	600	[1350 1830  405  675]	[ 90 570 405 675]
276.657	1.0	763624	764624	ELCue	VGS	39	2	False	lime	600	[1350 1830  405  675]	[ 90 570 405 675]
278.049	6.0	765016	771042	ShowFixation	ANTI	40	2	False	red	180	[1035 1515  405  675]	[405 885 405 675]
284.075	0.2	771042	771282	BlankScreen	ANTI	40	2	False	red	180	[1035 1515  405  675]	[405 885 405 675]
284.315	1.0	771282	772282	ELCue	ANTI	40	2	False	red	180	[1035 1515  405  675]	[405 885 405 675]
285.691	2.0	772658	774683	ShowFixation	VGS	41	2	False	lime	600	[1350 1830  405  675]	[ 90 570 405 675]
287.716	0.2	774683	774919	BlankScreen	VGS	41	2	False	lime	600	[1350 1830  405  675]	[ 90 570 405 675]
287.952	1.0	774919	775919	ELCue	VGS	41	2	False	lime	600	[1350 1830  405  675]	[ 90 570 405 675]
289.362	2.0	776329	778370	ShowFixation	VGS	42	2	False	lime	40	[ 90 570 405 675]	[1350 1830  405  675]
291.403	0.2	778370	778606	BlankScreen	VGS	42	2	False	lime	40	[ 90 570 405 675]	[1350 1830  405  675]
291.639	1.0	778606	779606	ELCue	VGS	42	2	False	lime	40	[ 90 570 405 675]	[1350 1830  405  675]
293.041	6.0	780008	786041	ShowFixation	VGS	43	2	False	lime	180	[405 885 405 675]	[1035 1515  405  675]
299.074	0.2	786041	786280	BlankScreen	VGS	43	2	False	lime	180	[405 885 405 675]	[1035 1515  405  675]
299.313	1.0	786280	787280	ELCue	VGS	43	2	False	lime	180	[405 885 405 675]	[1035 1515  405  675]
300.688	2.0	787655	789681	ShowFixation	VGS	44	2	False	lime	180	[405 885 405 675]	[1035 1515  405  675]
302.714	0.2	789681	789917	BlankScreen	VGS	44	2	False	lime	180	[405 885 405 675]	[1035 1515  405  675]
302.95	1.0	789917	790917	ELCue	VGS	44	2	False	lime	180	[405 885 405 675]	[1035 1515  405  675]
304.356	2.0	791323	793352	ShowFixation	ANTI	45	2	False	red	40	[1350 1830  405  675]	[ 90 570 405 675]
306.385	0.2	793352	793587	BlankScreen	ANTI	45	2	False	red	40	[1350 1830  405  675]	[ 90 570 405 675]
306.62	1.0	793587	794587	ELCue	ANTI	45	2	False	red	40	[1350 1830  405  675]	[ 90 570 405 675]
308.032	2.0	794999	797039	ShowFixation	VGS	46	2	False	lime	180	[405 885 405 675]	[1035 1515  405  675]
310.072	0.2	797039	797274	BlankScreen	VGS	46	2	False	lime	180	[405 885 405 675]	[1035 1515  405  675]
310.307	1.0	797274	798274	ELCue	VGS	46	2	False	lime	180	[405 885 405 675]	[1035 1515  405  675]
311.717	2.0	798684	800709	ShowFixation	ANTI	47	2	False	red	460	[405 885 405 675]	[1035 1515  405  675]
313.742	0.2	800709	800944	BlankScreen	ANTI	47	2	False	red	460	[405 885 405 675]	[1035 1515  405  675]
313.977	1.0	800944	801944	ELCue	ANTI	47	2	False	red	460	[405 885 405 675]	[1035 1515  405  675]
315.384	6.0	802351	808379	ShowFixation	ANTI	48	2	False	red	460	[405 885 405 675]	[1035 1515  405  675]
321.412	0.2	808379	808619	BlankScreen	ANTI	48	2	False	red	460	[405 885 405 675]	[1035 1515  405  675]
321.652	1.0	808619	809619	ELCue	ANTI	48	2	False	red	460	[405 885 405 675]	[1035 1515  405  675]
386.75	6.0	873717	879751	ShowFixation	ANTI	49	3	False	red	40	[1350 1830  405  675]	[ 90 570 405 675]
392.784	0.2	879751	879990	BlankScreen	ANTI	49	3	False	red	40	[1350 1830  405  675]	[ 90 570 405 675]
393.023	1.0	879990	880990	ELCue	ANTI	49	3	False	red	40	[1350 1830  405  675]	[ 90 570 405 675]
394.426	2.0	881393	883425	ShowFixation	VGS	50	3	False	lime	460	[1035 1515  405  675]	[405 885 405 675]
396.458	0.2	883425	883660	BlankScreen	VGS	50	3	False	lime	460	[1035 1515  405  675]	[405 885 405 675]
396.693	1.0	883660	884660	ELCue	VGS	50	3	False	lime	460	[1035 1515  405  675]	[405 885 405 675]
398.082	6.0	885049	891079	ShowFixation	ANTI	51	3	False	red	600	[ 90 570 405 675]	[1350 1830  405  675]
404.112	0.2	891079	891318	BlankScreen	ANTI	51	3	False	red	600	[ 90 570 405 675]	[1350 1830  405  675]
404.351	1.0	891318	892318	ELCue	ANTI	51	3	False	red	600	[ 90 570 405 675]	[1350 1830  405  675]
405.761	2.0	892728	894753	ShowFixation	ANTI	52	3	False	red	600	[ 90 570 405 675]	[1350 1830  405  675]
407.786	0.2	894753	894988	BlankScreen	ANTI	52	3	False	red	600	[ 90 570 405 675]	[1350 1830  405  675]
408.021	1.0	894988	895988	ELCue	ANTI	52	3	False	red	600	[ 90 570 405 675]	[1350 1830  405  675]
409.425	6.0	896392	902423	ShowFixation	ANTI	53	3	False	red	600	[ 90 570 405 675]	[1350 1830  405  675]
415.456	0.2	902423	902662	BlankScreen	ANTI	53	3	False	red	600	[ 90 570 405 675]	[1350 1830  405  675]
415.695	1.0	902662	903662	ELCue	ANTI	53	3	False	red	600	[ 90 570 405 675]	[1350 1830  405  675]
417.068	2.0	904035	906064	ShowFixation	ANTI	54	3	False	red	460	[405 885 405 675]	[1035 1515  405  675]
419.097	0.2	906064	906299	BlankScreen	ANTI	54	3	False	red	460	[405 885 405 675]	[1035 1515  405  675]
419.332	1.0	906299	907299	ELCue	ANTI	54	3	False	red	460	[405 885 405 675]	[1035 1515  405  675]
420.738	2.0	907705	909734	ShowFixation	VGS	55	3	False	lime	600	[1350 1830  405  675]	[ 90 570 405 675]
422.767	0.2	909734	909970	BlankScreen	VGS	55	3	False	lime	600	[1350 1830  405  675]	[ 90 570 405 675]
423.003	1.0	909970	910970	ELCue	VGS	55	3	False	lime	600	[1350 1830  405  675]	[ 90 570 405 675]
424.409	2.0	911376	913405	ShowFixation	ANTI	56	3	False	red	40	[1350 1830  405  675]	[ 90 570 405 675]
426.438	0.2	913405	913640	BlankScreen	ANTI	56	3	False	red	40	[1350 1830  405  675]	[ 90 570 405 675]
426.673	1.0	913640	914640	ELCue	ANTI	56	3	False	red	40	[1350 1830  405  675]	[ 90 570 405 675]
428.081	2.0	915048	917075	ShowFixation	VGS	57	3	False	lime	40	[ 90 570 405 675]	[1350 1830  405  675]
430.108	0.2	917075	917310	BlankScreen	VGS	57	3	False	lime	40	[ 90 570 405 675]	[1350 1830  405  675]
430.343	1.0	917310	918310	ELCue	VGS	57	3	False	lime	40	[ 90 570 405 675]	[1350 1830  405  675]
431.751	6.0	918718	924745	ShowFixation	VGS	58	3	False	lime	600	[1350 1830  405  675]	[ 90 570 405 675]
437.778	0.2	924745	924984	BlankScreen	VGS	58	3	False	lime	600	[1350 1830  405  675]	[ 90 570 405 675]
438.017	1.0	924984	925984	ELCue	VGS	58	3	False	lime	600	[1350 1830  405  675]	[ 90 570 405 675]
439.426	2.0	926393	928419	ShowFixation	VGS	59	3	False	lime	600	[1350 1830  405  675]	[ 90 570 405 675]
441.452	0.2	928419	928655	BlankScreen	VGS	59	3	False	lime	600	[1350 1830  405  675]	[ 90 570 405 675]
441.688	1.0	928655	929655	ELCue	VGS	59	3	False	lime	600	[1350 1830  405  675]	[ 90 570 405 675]
443.095	6.0	930062	936090	ShowFixation	VGS	60	3	False	lime	40	[ 90 570 405 675]	[1350 1830  405  675]
449.123	0.2	936090	936329	BlankScreen	VGS	60	3	False	lime	40	[ 90 570 405 675]	[1350 1830  405  675]
449.362	1.0	936329	937329	ELCue	VGS	60	3	False	lime	40	[ 90 570 405 675]	[1350 1830  405  675]
450.765	6.0	937732	943764	ShowFixation	VGS	61	3	False	lime	180	[405 885 405 675]	[1035 1515  405  675]
456.797	0.2	943764	944003	BlankScreen	VGS	61	3	False	lime	180	[405 885 405 675]	[1035 1515  405  675]
457.036	1.0	944003	945003	ELCue	VGS	61	3	False	lime	180	[405 885 405 675]	[1035 1515  405  675]
458.444	2.0	945411	947438	ShowFixation	ANTI	62	3	False	red	600	[ 90 570 405 675]	[1350 1830  405  675]
460.471	0.2	947438	947673	BlankScreen	ANTI	62	3	False	red	600	[ 90 570 405 675]	[1350 1830  405  675]
460.707	1.0	947674	948674	ELCue	ANTI	62	3	False	red	600	[ 90 570 405 675]	[1350 1830  405  675]
462.112	2.0	949079	951108	ShowFixation	ANTI	63	3	False	red	40	[1350 1830  405  675]	[ 90 570 405 675]
464.141	0.2	951108	951344	BlankScreen	ANTI	63	3	False	red	40	[1350 1830  405  675]	[ 90 570 405 675]
464.377	1.0	951344	952344	ELCue	ANTI	63	3	False	red	40	[1350 1830  405  675]	[ 90 570 405 675]
465.783	2.0	952750	954779	ShowFixation	ANTI	64	3	False	red	180	[1035 1515  405  675]	[405 885 405 675]
467.812	0.2	954779	955014	BlankScreen	ANTI	64	3	False	red	180	[1035 1515  405  675]	[405 885 405 675]
468.048	1.0	955015	956015	ELCue	ANTI	64	3	False	red	180	[1035 1515  405  675]	[405 885 405 675]
469.421	2.0	956388	958416	ShowFixation	VGS	65	3	False	lime	460	[1035 1515  405  675]	[405 885 405 675]
471.449	0.2	958416	958651	BlankScreen	VGS	65	3	False	lime	460	[1035 1515  405  675]	[405 885 405 675]
471.685	1.0	958652	959652	ELCue	VGS	65	3	False	lime	460	[1035 1515  405  675]	[405 885 405 675]
473.077	2.0	960044	962070	ShowFixation	VGS	66	3	False	lime	180	[405 885 405 675]	[1035 1515  405  675]
475.103	0.2	962070	962306	BlankScreen	VGS	66	3	False	lime	180	[405 885 405 675]	[1035 1515  405  675]
475.339	1.0	962306	963306	ELCue	VGS	66	3	False	lime	180	[405 885 405 675]	[1035 1515  405  675]
476.745	6.0	963712	969741	ShowFixation	ANTI	67	3	False	red	180	[1035 1515  405  675]	[405 885 405 675]
482.774	0.2	969741	969980	BlankScreen	ANTI	67	3	False	red	180	[1035 1515  405  675]	[405 885 405 675]
483.013	1.0	969980	970980	ELCue	ANTI	67	3	False	red	180	[1035 1515  405  675]	[405 885 405 675]
484.421	6.0	971388	977415	ShowFixation	ANTI	68	3	False	red	460	[405 885 405 675]	[1035 1515  405  675]
490.448	0.2	977415	977654	BlankScreen	ANTI	68	3	False	red	460	[405 885 405 675]	[1035 1515  405  675]
490.687	1.0	977654	978654	ELCue	ANTI	68	3	False	red	460	[405 885 405 675]	[1035 1515  405  675]
492.08	6.0	979047	985072	ShowFixation	VGS	69	3	False	lime	460	[1035 1515  405  675]	[405 885 405 675]
498.105	0.2	985072	985312	BlankScreen	VGS	69	3	False	lime	460	[1035 1515  405  675]	[405 885 405 675]
498.345	1.0	985312	986312	ELCue	VGS	69	3	False	lime	460	[1035 1515  405  675]	[405 885 405 675]
499.751	6.0	986718	992747	ShowFixation	VGS	70	3	False	lime	180	[405 885 405 675]	[1035 1515  405  675]
505.78	0.2	992747	992986	BlankScreen	VGS	70	3	False	lime	180	[405 885 405 675]	[1035 1515  405  675]
506.019	1.0	992986	993986	ELCue	VGS	70	3	False	lime	180	[405 885 405 675]	[1035 1515  405  675]
507.426	6.0	994393	1000421	ShowFixation	ANTI	71	3	False	red	40	[1350 1830  405  675]	[ 90 570 405 675]
513.454	0.2	1000421	1000660	BlankScreen	ANTI	71	3	False	red	40	[1350 1830  405  675]	[ 90 570 405 675]
513.693	1.0	1000660	1001660	ELCue	ANTI	71	3	False	red	40	[1350 1830  405  675]	[ 90 570 405 675]
515.107	6.0	1002074	1008112	ShowFixation	ANTI	72	3	False	red	180	[1035 1515  405  675]	[405 885 405 675]
521.145	0.2	1008112	1008351	BlankScreen	ANTI	72	3	False	red	180	[1035 1515  405  675]	[405 885 405 675]
521.384	1.0	1008351	1009351	ELCue	ANTI	72	3	False	red	180	[1035 1515  405  675]	[405 885 405 675]
522.789	6.0	1009756	1015786	ShowFixation	VGS	73	3	False	lime	40	[ 90 570 405 675]	[1350 1830  405  675]
528.819	0.2	1015786	1016025	BlankScreen	VGS	73	3	False	lime	40	[ 90 570 405 675]	[1350 1830  405  675]
529.058	1.0	1016025	1017025	ELCue	VGS	73	3	False	lime	40	[ 90 570 405 675]	[1350 1830  405  675]
530.467	6.0	1017434	1023460	ShowFixation	VGS	74	3	False	lime	460	[1035 1515  405  675]	[405 885 405 675]
536.493	0.2	1023460	1023699	BlankScreen	VGS	74	3	False	lime	460	[1035 1515  405  675]	[405 885 405 675]
536.732	1.0	1023699	1024699	ELCue	VGS	74	3	False	lime	460	[1035 1515  405  675]	[405 885 405 675]
538.122	2.0	1025089	1027118	ShowFixation	VGS	75	3	False	lime	180	[405 885 405 675]	[1035 1515  405  675]
540.151	0.2	1027118	1027353	BlankScreen	VGS	75	3	False	lime	180	[405 885 405 675]	[1035 1515  405  675]
540.386	1.0	1027353	1028353	ELCue	VGS	75	3	False	lime	180	[405 885 405 675]	[1035 1515  405  675]
541.777	6.0	1028744	1034771	ShowFixation	VGS	76	3	False	lime	600	[1350 1830  405  675]	[ 90 570 405 675]
547.804	0.2	1034771	1035011	BlankScreen	VGS	76	3	False	lime	600	[1350 1830  405  675]	[ 90 570 405 675]
548.044	1.0	1035011	1036011	ELCue	VGS	76	3	False	lime	600	[1350 1830  405  675]	[ 90 570 405 675]
549.447	2.0	1036414	1038446	ShowFixation	ANTI	77	3	False	red	180	[1035 1515  405  675]	[405 885 405 675]
551.479	0.2	1038446	1038681	BlankScreen	ANTI	77	3	False	red	180	[1035 1515  405  675]	[405 885 405 675]
551.714	1.0	1038681	1039681	ELCue	ANTI	77	3	False	red	180	[1035 1515  405  675]	[405 885 405 675]
553.122	2.0	1040089	1042116	ShowFixation	ANTI	78	3	False	red	460	[405 885 405 675]	[1035 1515  405  675]
555.149	0.2	1042116	1042351	BlankScreen	ANTI	78	3	False	red	460	[405 885 405 675]	[1035 1515  405  675]
555.384	1.0	1042351	1043351	ELCue	ANTI	78	3	False	red	460	[405 885 405 675]	[1035 1515  405  675]
556.766	6.0	1043733	1049769	ShowFixation	ANTI	79	3	False	red	460	[405 885 405 675]	[1035 1515  405  675]
562.802	0.2	1049769	1050009	BlankScreen	ANTI	79	3	False	red	460	[405 885 405 675]	[1035 1515  405  675]
563.042	1.0	1050009	1051009	ELCue	ANTI	79	3	False	red	460	[405 885 405 675]	[1035 1515  405  675]
564.447	2.0	1051414	1053444	ShowFixation	VGS	80	3	False	lime	40	[ 90 570 405 675]	[1350 1830  405  675]
566.477	0.2	1053444	1053679	BlankScreen	VGS	80	3	False	lime	40	[ 90 570 405 675]	[1350 1830  405  675]
566.712	1.0	1053679	1054679	ELCue	VGS	80	3	False	lime	40	[ 90 570 405 675]	[1350 1830  405  675]
616.223	2.0	1103190	1105229	ShowFixation	ANTI	81	4	False	red	180	[1035 1515  405  675]	[405 885 405 675]
618.262	0.2	1105229	1105464	BlankScreen	ANTI	81	4	False	red	180	[1035 1515  405  675]	[405 885 405 675]
618.497	1.0	1105464	1106464	ELCue	ANTI	81	4	False	red	180	[1035 1515  405  675]	[405 885 405 675]
619.872	2.0	1106839	1108866	ShowFixation	VGS	82	4	False	lime	460	[1035 1515  405  675]	[405 885 405 675]
621.899	0.2	1108866	1109101	BlankScreen	VGS	82	4	False	lime	460	[1035 1515  405  675]	[405 885 405 675]
622.134	1.0	1109101	1110101	ELCue	VGS	82	4	False	lime	460	[1035 1515  405  675]	[405 885 405 675]
623.544	6.0	1110511	1116536	ShowFixation	ANTI	83	4	False	red	460	[405 885 405 675]	[1035 1515  405  675]
629.569	0.2	1116536	1116776	BlankScreen	ANTI	83	4	False	red	460	[405 885 405 675]	[1035 1515  405  675]
629.809	1.0	1116776	1117776	ELCue	ANTI	83	4	False	red	460	[405 885 405 675]	[1035 1515  405  675]
631.218	2.0	1118185	1120211	ShowFixation	ANTI	84	4	False	red	600	[ 90 570 405 675]	[1350 1830  405  675]
633.244	0.2	1120211	1120446	BlankScreen	ANTI	84	4	False	red	600	[ 90 570 405 675]	[1350 1830  405  675]
633.479	1.0	1120446	1121446	ELCue	ANTI	84	4	False	red	600	[ 90 570 405 675]	[1350 1830  405  675]
634.889	2.0	1121856	1123881	ShowFixation	VGS	85	4	False	lime	180	[405 885 405 675]	[1035 1515  405  675]
636.914	0.2	1123881	1124116	BlankScreen	VGS	85	4	False	lime	180	[405 885 405 675]	[1035 1515  405  675]
637.149	1.0	1124116	1125116	ELCue	VGS	85	4	False	lime	180	[405 885 405 675]	[1035 1515  405  675]
638.559	6.0	1125526	1131551	ShowFixation	VGS	86	4	False	lime	180	[405 885 405 675]	[1035 1515  405  675]
644.584	0.2	1131551	1131790	BlankScreen	VGS	86	4	False	lime	180	[405 885 405 675]	[1035 1515  405  675]
644.823	1.0	1131790	1132790	ELCue	VGS	86	4	False	lime	180	[405 885 405 675]	[1035 1515  405  675]
646.223	6.0	1133190	1139225	ShowFixation	ANTI	87	4	False	red	40	[1350 1830  405  675]	[ 90 570 405 675]
652.258	0.2	1139225	1139465	BlankScreen	ANTI	87	4	False	red	40	[1350 1830  405  675]	[ 90 570 405 675]
652.498	1.0	1139465	1140465	ELCue	ANTI	87	4	False	red	40	[1350 1830  405  675]	[ 90 570 405 675]
653.906	6.0	1140873	1146900	ShowFixation	ANTI	88	4	False	red	600	[ 90 570 405 675]	[1350 1830  405  675]
659.933	0.2	1146900	1147139	BlankScreen	ANTI	88	4	False	red	600	[ 90 570 405 675]	[1350 1830  405  675]
660.172	1.0	1147139	1148139	ELCue	ANTI	88	4	False	red	600	[ 90 570 405 675]	[1350 1830  405  675]
661.579	6.0	1148546	1154574	ShowFixation	ANTI	89	4	False	red	40	[1350 1830  405  675]	[ 90 570 405 675]
667.607	0.2	1154574	1154813	BlankScreen	ANTI	89	4	False	red	40	[1350 1830  405  675]	[ 90 570 405 675]
667.846	1.0	1154813	1155813	ELCue	ANTI	89	4	False	red	40	[1350 1830  405  675]	[ 90 570 405 675]
669.235	2.0	1156202	1158231	ShowFixation	ANTI	90	4	False	red	40	[1350 1830  405  675]	[ 90 570 405 675]
671.264	0.2	1158231	1158467	BlankScreen	ANTI	90	4	False	red	40	[1350 1830  405  675]	[ 90 570 405 675]
671.5	1.0	1158467	1159467	ELCue	ANTI	90	4	False	red	40	[1350 1830  405  675]	[ 90 570 405 675]
672.905	2.0	1159872	1161902	ShowFixation	VGS	91	4	False	lime	180	[405 885 405 675]	[1035 1515  405  675]
674.935	0.2	1161902	1162137	BlankScreen	VGS	91	4	False	lime	180	[405 885 405 675]	[1035 1515  405  675]
675.17	1.0	1162137	1163137	ELCue	VGS	91	4	False	lime	180	[405 885 405 675]	[1035 1515  405  675]
676.623	2.0	1163590	1165622	ShowFixation	VGS	92	4	False	lime	600	[1350 1830  405  675]	[ 90 570 405 675]
678.655	0.2	1165622	1165857	BlankScreen	VGS	92	4	False	lime	600	[1350 1830  405  675]	[ 90 570 405 675]
678.89	1.0	1165857	1166857	ELCue	VGS	92	4	False	lime	600	[1350 1830  405  675]	[ 90 570 405 675]
680.293	2.0	1167260	1169292	ShowFixation	VGS	93	4	False	lime	40	[ 90 570 405 675]	[1350 1830  405  675]
682.325	0.2	1169292	1169528	BlankScreen	VGS	93	4	False	lime	40	[ 90 570 405 675]	[1350 1830  405  675]
682.561	1.0	1169528	1170528	ELCue	VGS	93	4	False	lime	40	[ 90 570 405 675]	[1350 1830  405  675]
683.968	6.0	1170935	1176963	ShowFixation	ANTI	94	4	False	red	180	[1035 1515  405  675]	[405 885 405 675]
689.996	0.2	1176963	1177202	BlankScreen	ANTI	94	4	False	red	180	[1035 1515  405  675]	[405 885 405 675]
690.235	1.0	1177202	1178202	ELCue	ANTI	94	4	False	red	180	[1035 1515  405  675]	[405 885 405 675]
691.648	6.0	1178615	1184655	ShowFixation	ANTI	95	4	False	red	180	[1035 1515  405  675]	[405 885 405 675]
697.688	0.2	1184655	1184894	BlankScreen	ANTI	95	4	False	red	180	[1035 1515  405  675]	[405 885 405 675]
697.927	1.0	1184894	1185894	ELCue	ANTI	95	4	False	red	180	[1035 1515  405  675]	[405 885 405 675]
699.33	2.0	1186297	1188329	ShowFixation	ANTI	96	4	False	red	600	[ 90 570 405 675]	[1350 1830  405  675]
701.362	0.2	1188329	1188564	BlankScreen	ANTI	96	4	False	red	600	[ 90 570 405 675]	[1350 1830  405  675]
701.597	1.0	1188564	1189564	ELCue	ANTI	96	4	False	red	600	[ 90 570 405 675]	[1350 1830  405  675]
702.987	6.0	1189954	1195982	ShowFixation	VGS	97	4	False	lime	460	[1035 1515  405  675]	[405 885 405 675]
709.015	0.2	1195982	1196222	BlankScreen	VGS	97	4	False	lime	460	[1035 1515  405  675]	[405 885 405 675]
709.255	1.0	1196222	1197222	ELCue	VGS	97	4	False	lime	460	[1035 1515  405  675]	[405 885 405 675]
710.663	2.0	1197630	1199657	ShowFixation	ANTI	98	4	False	red	460	[405 885 405 675]	[1035 1515  405  675]
712.69	0.2	1199657	1199892	BlankScreen	ANTI	98	4	False	red	460	[405 885 405 675]	[1035 1515  405  675]
712.925	1.0	1199892	1200892	ELCue	ANTI	98	4	False	red	460	[405 885 405 675]	[1035 1515  405  675]
714.332	2.0	1201299	1203327	ShowFixation	VGS	99	4	False	lime	40	[ 90 570 405 675]	[1350 1830  405  675]
716.36	0.2	1203327	1203562	BlankScreen	VGS	99	4	False	lime	40	[ 90 570 405 675]	[1350 1830  405  675]
716.595	1.0	1203562	1204562	ELCue	VGS	99	4	False	lime	40	[ 90 570 405 675]	[1350 1830  405  675]
718.007	2.0	1204974	1207014	ShowFixation	VGS	100	4	False	lime	460	[1035 1515  405  675]	[405 885 405 675]
720.047	0.2	1207014	1207249	BlankScreen	VGS	100	4	False	lime	460	[1035 1515  405  675]	[405 885 405 675]
720.282	1.0	1207249	1208249	ELCue	VGS	100	4	False	lime	460	[1035 1515  405  675]	[405 885 405 675]
721.689	6.0	1208656	1214684	ShowFixation	VGS	101	4	False	lime	180	[405 885 405 675]	[1035 1515  405  675]
727.717	0.2	1214684	1214924	BlankScreen	VGS	101	4	False	lime	180	[405 885 405 675]	[1035 1515  405  675]
727.957	1.0	1214924	1215924	ELCue	VGS	101	4	False	lime	180	[405 885 405 675]	[1035 1515  405  675]
729.369	6.0	1216336	1222375	ShowFixation	VGS	102	4	False	lime	40	[ 90 570 405 675]	[1350 1830  405  675]
735.408	0.2	1222375	1222614	BlankScreen	VGS	102	4	False	lime	40	[ 90 570 405 675]	[1350 1830  405  675]
735.647	1.0	1222614	1223614	ELCue	VGS	102	4	False	lime	40	[ 90 570 405 675]	[1350 1830  405  675]
737.169	2.0	1224136	1226166	ShowFixation	VGS	103	4	False	lime	600	[1350 1830  405  675]	[ 90 570 405 675]
739.199	0.2	1226166	1226402	BlankScreen	VGS	103	4	False	lime	600	[1350 1830  405  675]	[ 90 570 405 675]
739.435	1.0	1226402	1227402	ELCue	VGS	103	4	False	lime	600	[1350 1830  405  675]	[ 90 570 405 675]
740.845	6.0	1227812	1233853	ShowFixation	ANTI	104	4	False	red	460	[405 885 405 675]	[1035 1515  405  675]
746.886	0.2	1233853	1234092	BlankScreen	ANTI	104	4	False	red	460	[405 885 405 675]	[1035 1515  405  675]
747.125	1.0	1234092	1235092	ELCue	ANTI	104	4	False	red	460	[405 885 405 675]	[1035 1515  405  675]
748.533	2.0	1235500	1237527	ShowFixation	ANTI	105	4	False	red	460	[405 885 405 675]	[1035 1515  405  675]
750.56	0.2	1237527	1237763	BlankScreen	ANTI	105	4	False	red	460	[405 885 405 675]	[1035 1515  405  675]
750.796	1.0	1237763	1238763	ELCue	ANTI	105	4	False	red	460	[405 885 405 675]	[1035 1515  405  675]
752.203	6.0	1239170	1245198	ShowFixation	VGS	106	4	False	lime	600	[1350 1830  405  675]	[ 90 570 405 675]
758.231	0.2	1245198	1245437	BlankScreen	VGS	106	4	False	lime	600	[1350 1830  405  675]	[ 90 570 405 675]
758.47	1.0	1245437	1246437	ELCue	VGS	106	4	False	lime	600	[1350 1830  405  675]	[ 90 570 405 675]
759.878	6.0	1246845	1252872	ShowFixation	VGS	107	4	False	lime	40	[ 90 570 405 675]	[1350 1830  405  675]
765.905	0.2	1252872	1253111	BlankScreen	VGS	107	4	False	lime	40	[ 90 570 405 675]	[1350 1830  405  675]
766.144	1.0	1253111	1254111	ELCue	VGS	107	4	False	lime	40	[ 90 570 405 675]	[1350 1830  405  675]
767.555	2.0	1254522	1256563	ShowFixation	ANTI	108	4	False	red	180	[1035 1515  405  675]	[405 885 405 675]
769.596	0.2	1256563	1256798	BlankScreen	ANTI	108	4	False	red	180	[1035 1515  405  675]	[405 885 405 675]
769.831	1.0	1256798	1257798	ELCue	ANTI	108	4	False	red	180	[1035 1515  405  675]	[405 885 405 675]
771.24	6.0	1258207	1264233	ShowFixation	ANTI	109	4	False	red	600	[ 90 570 405 675]	[1350 1830  405  675]
777.266	0.2	1264233	1264472	BlankScreen	ANTI	109	4	False	red	600	[ 90 570 405 675]	[1350 1830  405  675]
777.505	1.0	1264472	1265472	ELCue	ANTI	109	4	False	red	600	[ 90 570 405 675]	[1350 1830  405  675]
778.913	2.0	1265880	1267907	ShowFixation	ANTI	110	4	False	red	40	[1350 1830  405  675]	[ 90 570 405 675]
780.94	0.2	1267907	1268143	BlankScreen	ANTI	110	4	False	red	40	[1350 1830  405  675]	[ 90 570 405 675]
781.176	1.0	1268143	1269143	ELCue	ANTI	110	4	False	red	40	[1350 1830  405  675]	[ 90 570 405 675]
782.58	6.0	1269547	1275578	ShowFixation	VGS	111	4	False	lime	600	[1350 1830  405  675]	[ 90 570 405 675]
788.611	0.2	1275578	1275817	BlankScreen	VGS	111	4	False	lime	600	[1350 1830  405  675]	[ 90 570 405 675]
788.85	1.0	1275817	1276817	ELCue	VGS	111	4	False	lime	600	[1350 1830  405  675]	[ 90 570 405 675]
790.257	6.0	1277224	1283252	ShowFixation	VGS	112	4	False	lime	460	[1035 1515  405  675]	[405 885 405 675]
796.285	0.2	1283252	1283491	BlankScreen	VGS	112	4	False	lime	460	[1035 1515  405  675]	[405 885 405 675]
796.524	1.0	1283491	1284491	ELCue	VGS	112	4	False	lime	460	[1035 1515  405  675]	[405 885 405 675]
