onset	duration	startTime	stopTime	eventIdentifier	trial_type	trial_number	block_number	is_practice	fixation_color	cue_side	aoi_correct	aoi_incorrect
0.146	6.0	1394430	1400475	ShowFixation	VGS	1	1	True	lime	460	[1035 1515  405  675]	[405 885 405 675]
6.191	0.2	1400475	1400714	BlankScreen	VGS	1	1	True	lime	460	[1035 1515  405  675]	[405 885 405 675]
6.43	1.0	1400714	1401755	ELCue	VGS	1	1	True	lime	460	[1035 1515  405  675]	[405 885 405 675]
7.875	6.0	1402159	1408800	ShowFixation	ANTI	2	1	True	red	40	[1350 1830  405  675]	[ 90 570 405 675]
14.517	0.2	1408801	1409039	BlankScreen	ANTI	2	1	True	red	40	[1350 1830  405  675]	[ 90 570 405 675]
14.755	1.0	1409039	1410080	ELCue	ANTI	2	1	True	red	40	[1350 1830  405  675]	[ 90 570 405 675]
16.181	6.0	1410465	1417108	ShowFixation	ANTI	3	1	True	red	460	[405 885 405 675]	[1035 1515  405  675]
22.824	0.2	1417108	1417347	BlankScreen	ANTI	3	1	True	red	460	[405 885 405 675]	[1035 1515  405  675]
23.063	1.0	1417347	1418389	ELCue	ANTI	3	1	True	red	460	[405 885 405 675]	[1035 1515  405  675]
24.511	6.0	1418795	1425434	ShowFixation	VGS	4	1	True	lime	40	[ 90 570 405 675]	[1350 1830  405  675]
31.15	0.2	1425434	1425673	BlankScreen	VGS	4	1	True	lime	40	[ 90 570 405 675]	[1350 1830  405  675]
31.389	1.0	1425673	1426713	ELCue	VGS	4	1	True	lime	40	[ 90 570 405 675]	[1350 1830  405  675]
32.838	2.0	1427122	1429741	ShowFixation	ANTI	5	1	True	red	180	[1035 1515  405  675]	[405 885 405 675]
35.458	0.2	1429742	1429960	BlankScreen	ANTI	5	1	True	red	180	[1035 1515  405  675]	[405 885 405 675]
35.677	1.0	1429961	1430984	ELCue	ANTI	5	1	True	red	180	[1035 1515  405  675]	[405 885 405 675]
37.101	2.0	1431385	1434029	ShowFixation	ANTI	6	1	True	red	600	[ 90 570 405 675]	[1350 1830  405  675]
39.745	0.2	1434029	1434264	BlankScreen	ANTI	6	1	True	red	600	[ 90 570 405 675]	[1350 1830  405  675]
39.98	1.0	1434264	1435305	ELCue	ANTI	6	1	True	red	600	[ 90 570 405 675]	[1350 1830  405  675]
41.429	6.0	1435713	1442334	ShowFixation	VGS	7	1	True	lime	180	[405 885 405 675]	[1035 1515  405  675]
48.05	0.2	1442334	1442572	BlankScreen	VGS	7	1	True	lime	180	[405 885 405 675]	[1035 1515  405  675]
48.288	1.0	1442572	1443613	ELCue	VGS	7	1	True	lime	180	[405 885 405 675]	[1035 1515  405  675]
49.735	6.0	1444019	1450659	ShowFixation	ANTI	8	1	True	red	600	[ 90 570 405 675]	[1350 1830  405  675]
56.375	0.2	1450659	1450898	BlankScreen	ANTI	8	1	True	red	600	[ 90 570 405 675]	[1350 1830  405  675]
56.614	1.0	1450898	1451938	ELCue	ANTI	8	1	True	red	600	[ 90 570 405 675]	[1350 1830  405  675]
58.059	2.0	1452343	1454984	ShowFixation	ANTI	9	1	True	red	460	[405 885 405 675]	[1035 1515  405  675]
60.7	0.2	1454984	1455219	BlankScreen	ANTI	9	1	True	red	460	[405 885 405 675]	[1035 1515  405  675]
60.935	1.0	1455219	1456259	ELCue	ANTI	9	1	True	red	460	[405 885 405 675]	[1035 1515  405  675]
62.377	2.0	1456661	1459288	ShowFixation	ANTI	10	1	True	red	40	[1350 1830  405  675]	[ 90 570 405 675]
65.004	0.2	1459288	1459507	BlankScreen	ANTI	10	1	True	red	40	[1350 1830  405  675]	[ 90 570 405 675]
65.223	1.0	1459507	1460530	ELCue	ANTI	10	1	True	red	40	[1350 1830  405  675]	[ 90 570 405 675]
66.647	2.0	1460931	1463576	ShowFixation	VGS	11	1	True	lime	600	[1350 1830  405  675]	[ 90 570 405 675]
69.292	0.2	1463576	1463811	BlankScreen	VGS	11	1	True	lime	600	[1350 1830  405  675]	[ 90 570 405 675]
69.527	1.0	1463811	1464851	ELCue	VGS	11	1	True	lime	600	[1350 1830  405  675]	[ 90 570 405 675]
70.969	6.0	1465253	1471897	ShowFixation	ANTI	12	1	True	red	180	[1035 1515  405  675]	[405 885 405 675]
77.613	0.2	1471897	1472136	BlankScreen	ANTI	12	1	True	red	180	[1035 1515  405  675]	[405 885 405 675]
77.852	1.0	1472136	1473176	ELCue	ANTI	12	1	True	red	180	[1035 1515  405  675]	[405 885 405 675]
79.296	6.0	1473580	1480221	ShowFixation	VGS	13	1	True	lime	600	[1350 1830  405  675]	[ 90 570 405 675]
85.937	0.2	1480221	1480461	BlankScreen	VGS	13	1	True	lime	600	[1350 1830  405  675]	[ 90 570 405 675]
86.177	1.0	1480461	1481501	ELCue	VGS	13	1	True	lime	600	[1350 1830  405  675]	[ 90 570 405 675]
87.582	2.0	1481866	1484546	ShowFixation	VGS	14	1	True	lime	180	[405 885 405 675]	[1035 1515  405  675]
90.262	0.2	1484546	1484782	BlankScreen	VGS	14	1	True	lime	180	[405 885 405 675]	[1035 1515  405  675]
90.498	1.0	1484782	1485822	ELCue	VGS	14	1	True	lime	180	[405 885 405 675]	[1035 1515  405  675]
91.941	2.0	1486225	1488867	ShowFixation	VGS	15	1	True	lime	40	[ 90 570 405 675]	[1350 1830  405  675]
94.583	0.2	1488867	1489103	BlankScreen	VGS	15	1	True	lime	40	[ 90 570 405 675]	[1350 1830  405  675]
94.819	1.0	1489103	1490142	ELCue	VGS	15	1	True	lime	40	[ 90 570 405 675]	[1350 1830  405  675]
96.259	2.0	1490543	1493171	ShowFixation	VGS	16	1	True	lime	460	[1035 1515  405  675]	[405 885 405 675]
98.887	0.2	1493171	1493390	BlankScreen	VGS	16	1	True	lime	460	[1035 1515  405  675]	[405 885 405 675]
99.106	1.0	1493390	1494413	ELCue	VGS	16	1	True	lime	460	[1035 1515  405  675]	[405 885 405 675]
130.403	6.0	1524687	1530721	ShowFixation	ANTI	17	2	False	red	600	[ 90 570 405 675]	[1350 1830  405  675]
136.437	0.2	1530721	1530961	BlankScreen	ANTI	17	2	False	red	600	[ 90 570 405 675]	[1350 1830  405  675]
136.677	1.0	1530961	1531961	ELCue	ANTI	17	2	False	red	600	[ 90 570 405 675]	[1350 1830  405  675]
138.083	2.0	1532367	1534395	ShowFixation	ANTI	18	2	False	red	600	[ 90 570 405 675]	[1350 1830  405  675]
140.111	0.2	1534395	1534631	BlankScreen	ANTI	18	2	False	red	600	[ 90 570 405 675]	[1350 1830  405  675]
140.347	1.0	1534631	1535631	ELCue	ANTI	18	2	False	red	600	[ 90 570 405 675]	[1350 1830  405  675]
141.756	2.0	1536040	1538066	ShowFixation	ANTI	19	2	False	red	40	[1350 1830  405  675]	[ 90 570 405 675]
143.782	0.2	1538066	1538301	BlankScreen	ANTI	19	2	False	red	40	[1350 1830  405  675]	[ 90 570 405 675]
144.017	1.0	1538301	1539301	ELCue	ANTI	19	2	False	red	40	[1350 1830  405  675]	[ 90 570 405 675]
145.427	2.0	1539711	1541736	ShowFixation	VGS	20	2	False	lime	40	[ 90 570 405 675]	[1350 1830  405  675]
147.452	0.2	1541736	1541971	BlankScreen	VGS	20	2	False	lime	40	[ 90 570 405 675]	[1350 1830  405  675]
147.687	1.0	1541971	1542971	ELCue	VGS	20	2	False	lime	40	[ 90 570 405 675]	[1350 1830  405  675]
149.061	6.0	1543345	1549373	ShowFixation	ANTI	21	2	False	red	460	[405 885 405 675]	[1035 1515  405  675]
155.089	0.2	1549373	1549612	BlankScreen	ANTI	21	2	False	red	460	[405 885 405 675]	[1035 1515  405  675]
155.328	1.0	1549612	1550612	ELCue	ANTI	21	2	False	red	460	[405 885 405 675]	[1035 1515  405  675]
156.737	6.0	1551021	1557047	ShowFixation	VGS	22	2	False	lime	460	[1035 1515  405  675]	[405 885 405 675]
162.763	0.2	1557047	1557287	BlankScreen	VGS	22	2	False	lime	460	[1035 1515  405  675]	[405 885 405 675]
163.003	1.0	1557287	1558287	ELCue	VGS	22	2	False	lime	460	[1035 1515  405  675]	[405 885 405 675]
164.412	2.0	1558696	1560721	ShowFixation	ANTI	23	2	False	red	460	[405 885 405 675]	[1035 1515  405  675]
166.437	0.2	1560721	1560957	BlankScreen	ANTI	23	2	False	red	460	[405 885 405 675]	[1035 1515  405  675]
166.673	1.0	1560957	1561957	ELCue	ANTI	23	2	False	red	460	[405 885 405 675]	[1035 1515  405  675]
168.063	6.0	1562347	1568375	ShowFixation	VGS	24	2	False	lime	180	[405 885 405 675]	[1035 1515  405  675]
174.091	0.2	1568375	1568614	BlankScreen	VGS	24	2	False	lime	180	[405 885 405 675]	[1035 1515  405  675]
174.33	1.0	1568614	1569614	ELCue	VGS	24	2	False	lime	180	[405 885 405 675]	[1035 1515  405  675]
175.738	6.0	1570022	1576049	ShowFixation	VGS	25	2	False	lime	40	[ 90 570 405 675]	[1350 1830  405  675]
181.766	0.2	1576050	1576289	BlankScreen	VGS	25	2	False	lime	40	[ 90 570 405 675]	[1350 1830  405  675]
182.005	1.0	1576289	1577289	ELCue	VGS	25	2	False	lime	40	[ 90 570 405 675]	[1350 1830  405  675]
183.409	2.0	1577693	1579724	ShowFixation	ANTI	26	2	False	red	40	[1350 1830  405  675]	[ 90 570 405 675]
185.441	0.2	1579725	1579959	BlankScreen	ANTI	26	2	False	red	40	[1350 1830  405  675]	[ 90 570 405 675]
185.675	1.0	1579959	1580959	ELCue	ANTI	26	2	False	red	40	[1350 1830  405  675]	[ 90 570 405 675]
187.079	2.0	1581363	1583394	ShowFixation	VGS	27	2	False	lime	600	[1350 1830  405  675]	[ 90 570 405 675]
189.111	0.2	1583395	1583630	BlankScreen	VGS	27	2	False	lime	600	[1350 1830  405  675]	[ 90 570 405 675]
189.346	1.0	1583630	1584630	ELCue	VGS	27	2	False	lime	600	[1350 1830  405  675]	[ 90 570 405 675]
190.751	2.0	1585035	1587064	ShowFixation	VGS	28	2	False	lime	460	[1035 1515  405  675]	[405 885 405 675]
192.781	0.2	1587065	1587299	BlankScreen	VGS	28	2	False	lime	460	[1035 1515  405  675]	[405 885 405 675]
193.015	1.0	1587299	1588299	ELCue	VGS	28	2	False	lime	460	[1035 1515  405  675]	[405 885 405 675]
194.423	2.0	1588707	1590735	ShowFixation	ANTI	29	2	False	red	180	[1035 1515  405  675]	[405 885 405 675]
196.451	0.2	1590735	1590971	BlankScreen	ANTI	29	2	False	red	180	[1035 1515  405  675]	[405 885 405 675]
196.687	1.0	1590971	1591971	ELCue	ANTI	29	2	False	red	180	[1035 1515  405  675]	[405 885 405 675]
198.091	2.0	1592375	1594406	ShowFixation	VGS	30	2	False	lime	180	[405 885 405 675]	[1035 1515  405  675]
200.122	0.2	1594406	1594641	BlankScreen	VGS	30	2	False	lime	180	[405 885 405 675]	[1035 1515  405  675]
200.357	1.0	1594641	1595641	ELCue	VGS	30	2	False	lime	180	[405 885 405 675]	[1035 1515  405  675]
201.765	6.0	1596049	1602076	ShowFixation	VGS	31	2	False	lime	600	[1350 1830  405  675]	[ 90 570 405 675]
207.792	0.2	1602076	1602315	BlankScreen	VGS	31	2	False	lime	600	[1350 1830  405  675]	[ 90 570 405 675]
208.031	1.0	1602315	1603315	ELCue	VGS	31	2	False	lime	600	[1350 1830  405  675]	[ 90 570 405 675]
209.44	6.0	1603724	1609750	ShowFixation	ANTI	32	2	False	red	600	[ 90 570 405 675]	[1350 1830  405  675]
215.466	0.2	1609750	1609990	BlankScreen	ANTI	32	2	False	red	600	[ 90 570 405 675]	[1350 1830  405  675]
215.706	1.0	1609990	1610990	ELCue	ANTI	32	2	False	red	600	[ 90 570 405 675]	[1350 1830  405  675]
217.11	6.0	1611394	1617424	ShowFixation	ANTI	33	2	False	red	180	[1035 1515  405  675]	[405 885 405 675]
223.14	0.2	1617424	1617664	BlankScreen	ANTI	33	2	False	red	180	[1035 1515  405  675]	[405 885 405 675]
223.38	1.0	1617664	1618664	ELCue	ANTI	33	2	False	red	180	[1035 1515  405  675]	[405 885 405 675]
224.787	6.0	1619071	1625099	ShowFixation	ANTI	34	2	False	red	40	[1350 1830  405  675]	[ 90 570 405 675]
230.815	0.2	1625099	1625338	BlankScreen	ANTI	34	2	False	red	40	[1350 1830  405  675]	[ 90 570 405 675]
231.054	1.0	1625338	1626338	ELCue	ANTI	34	2	False	red	40	[1350 1830  405  675]	[ 90 570 405 675]
232.459	2.0	1626743	1628773	ShowFixation	ANTI	35	2	False	red	460	[405 885 405 675]	[1035 1515  405  675]
234.489	0.2	1628773	1629008	BlankScreen	ANTI	35	2	False	red	460	[405 885 405 675]	[1035 1515  405  675]
234.724	1.0	1629008	1630008	ELCue	ANTI	35	2	False	red	460	[405 885 405 675]	[1035 1515  405  675]
236.135	2.0	1630419	1632460	ShowFixation	VGS	36	2	False	lime	460	[1035 1515  405  675]	[405 885 405 675]
238.176	0.2	1632460	1632695	BlankScreen	VGS	36	2	False	lime	460	[1035 1515  405  675]	[405 885 405 675]
238.411	1.0	1632695	1633695	ELCue	VGS	36	2	False	lime	460	[1035 1515  405  675]	[405 885 405 675]
239.821	6.0	1634105	1640130	ShowFixation	ANTI	37	2	False	red	40	[1350 1830  405  675]	[ 90 570 405 675]
245.846	0.2	1640130	1640370	BlankScreen	ANTI	37	2	False	red	40	[1350 1830  405  675]	[ 90 570 405 675]
246.086	1.0	1640370	1641370	ELCue	ANTI	37	2	False	red	40	[1350 1830  405  675]	[ 90 570 405 675]
247.496	2.0	1641780	1643821	ShowFixation	VGS	38	2	False	lime	180	[405 885 405 675]	[1035 1515  405  675]
249.537	0.2	1643821	1644057	BlankScreen	VGS	38	2	False	lime	180	[405 885 405 675]	[1035 1515  405  675]
249.773	1.0	1644057	1645057	ELCue	VGS	38	2	False	lime	180	[405 885 405 675]	[1035 1515  405  675]
251.175	6.0	1645459	1651491	ShowFixation	VGS	39	2	False	lime	40	[ 90 570 405 675]	[1350 1830  405  675]
257.207	0.2	1651491	1651731	BlankScreen	VGS	39	2	False	lime	40	[ 90 570 405 675]	[1350 1830  405  675]
257.447	1.0	1651731	1652731	ELCue	VGS	39	2	False	lime	40	[ 90 570 405 675]	[1350 1830  405  675]
258.851	6.0	1653135	1659166	ShowFixation	VGS	40	2	False	lime	180	[405 885 405 675]	[1035 1515  405  675]
264.882	0.2	1659166	1659405	BlankScreen	VGS	40	2	False	lime	180	[405 885 405 675]	[1035 1515  405  675]
265.121	1.0	1659405	1660405	ELCue	VGS	40	2	False	lime	180	[405 885 405 675]	[1035 1515  405  675]
266.531	6.0	1660815	1666840	ShowFixation	ANTI	41	2	False	red	460	[405 885 405 675]	[1035 1515  405  675]
272.556	0.2	1666840	1667079	BlankScreen	ANTI	41	2	False	red	460	[405 885 405 675]	[1035 1515  405  675]
272.795	1.0	1667079	1668079	ELCue	ANTI	41	2	False	red	460	[405 885 405 675]	[1035 1515  405  675]
274.203	2.0	1668487	1670514	ShowFixation	ANTI	42	2	False	red	600	[ 90 570 405 675]	[1350 1830  405  675]
276.23	0.2	1670514	1670750	BlankScreen	ANTI	42	2	False	red	600	[ 90 570 405 675]	[1350 1830  405  675]
276.466	1.0	1670750	1671750	ELCue	ANTI	42	2	False	red	600	[ 90 570 405 675]	[1350 1830  405  675]
277.873	2.0	1672157	1674184	ShowFixation	ANTI	43	2	False	red	180	[1035 1515  405  675]	[405 885 405 675]
279.9	0.2	1674184	1674420	BlankScreen	ANTI	43	2	False	red	180	[1035 1515  405  675]	[405 885 405 675]
280.136	1.0	1674420	1675420	ELCue	ANTI	43	2	False	red	180	[1035 1515  405  675]	[405 885 405 675]
281.527	6.0	1675811	1681838	ShowFixation	VGS	44	2	False	lime	460	[1035 1515  405  675]	[405 885 405 675]
287.554	0.2	1681838	1682077	BlankScreen	VGS	44	2	False	lime	460	[1035 1515  405  675]	[405 885 405 675]
287.793	1.0	1682077	1683077	ELCue	VGS	44	2	False	lime	460	[1035 1515  405  675]	[405 885 405 675]
289.2	2.0	1683484	1685512	ShowFixation	VGS	45	2	False	lime	40	[ 90 570 405 675]	[1350 1830  405  675]
291.228	0.2	1685512	1685748	BlankScreen	VGS	45	2	False	lime	40	[ 90 570 405 675]	[1350 1830  405  675]
291.464	1.0	1685748	1686748	ELCue	VGS	45	2	False	lime	40	[ 90 570 405 675]	[1350 1830  405  675]
292.873	6.0	1687157	1693183	ShowFixation	ANTI	46	2	False	red	180	[1035 1515  405  675]	[405 885 405 675]
298.899	0.2	1693183	1693422	BlankScreen	ANTI	46	2	False	red	180	[1035 1515  405  675]	[405 885 405 675]
299.138	1.0	1693422	1694422	ELCue	ANTI	46	2	False	red	180	[1035 1515  405  675]	[405 885 405 675]
300.543	2.0	1694827	1696857	ShowFixation	VGS	47	2	False	lime	600	[1350 1830  405  675]	[ 90 570 405 675]
302.573	0.2	1696857	1697092	BlankScreen	VGS	47	2	False	lime	600	[1350 1830  405  675]	[ 90 570 405 675]
302.808	1.0	1697092	1698092	ELCue	VGS	47	2	False	lime	600	[1350 1830  405  675]	[ 90 570 405 675]
304.212	6.0	1698496	1704527	ShowFixation	VGS	48	2	False	lime	600	[1350 1830  405  675]	[ 90 570 405 675]
310.244	0.2	1704528	1704766	BlankScreen	VGS	48	2	False	lime	600	[1350 1830  405  675]	[ 90 570 405 675]
310.482	1.0	1704766	1705766	ELCue	VGS	48	2	False	lime	600	[1350 1830  405  675]	[ 90 570 405 675]
350.142	2.0	1744426	1746457	ShowFixation	VGS	49	3	False	lime	600	[1350 1830  405  675]	[ 90 570 405 675]
352.173	0.2	1746457	1746692	BlankScreen	VGS	49	3	False	lime	600	[1350 1830  405  675]	[ 90 570 405 675]
352.408	1.0	1746692	1747692	ELCue	VGS	49	3	False	lime	600	[1350 1830  405  675]	[ 90 570 405 675]
353.817	6.0	1748101	1754127	ShowFixation	VGS	50	3	False	lime	460	[1035 1515  405  675]	[405 885 405 675]
359.843	0.2	1754127	1754366	BlankScreen	VGS	50	3	False	lime	460	[1035 1515  405  675]	[405 885 405 675]
360.082	1.0	1754366	1755366	ELCue	VGS	50	3	False	lime	460	[1035 1515  405  675]	[405 885 405 675]
361.487	2.0	1755771	1757801	ShowFixation	VGS	51	3	False	lime	600	[1350 1830  405  675]	[ 90 570 405 675]
363.517	0.2	1757801	1758037	BlankScreen	VGS	51	3	False	lime	600	[1350 1830  405  675]	[ 90 570 405 675]
363.753	1.0	1758037	1759037	ELCue	VGS	51	3	False	lime	600	[1350 1830  405  675]	[ 90 570 405 675]
365.158	2.0	1759442	1761472	ShowFixation	VGS	52	3	False	lime	40	[ 90 570 405 675]	[1350 1830  405  675]
367.188	0.2	1761472	1761707	BlankScreen	VGS	52	3	False	lime	40	[ 90 570 405 675]	[1350 1830  405  675]
367.423	1.0	1761707	1762707	ELCue	VGS	52	3	False	lime	40	[ 90 570 405 675]	[1350 1830  405  675]
368.834	2.0	1763118	1765159	ShowFixation	ANTI	53	3	False	red	460	[405 885 405 675]	[1035 1515  405  675]
370.875	0.2	1765159	1765394	BlankScreen	ANTI	53	3	False	red	460	[405 885 405 675]	[1035 1515  405  675]
371.11	1.0	1765394	1766394	ELCue	ANTI	53	3	False	red	460	[405 885 405 675]	[1035 1515  405  675]
372.519	6.0	1766803	1772829	ShowFixation	ANTI	54	3	False	red	180	[1035 1515  405  675]	[405 885 405 675]
378.545	0.2	1772829	1773068	BlankScreen	ANTI	54	3	False	red	180	[1035 1515  405  675]	[405 885 405 675]
378.784	1.0	1773068	1774068	ELCue	ANTI	54	3	False	red	180	[1035 1515  405  675]	[405 885 405 675]
380.171	6.0	1774455	1780486	ShowFixation	VGS	55	3	False	lime	180	[405 885 405 675]	[1035 1515  405  675]
386.202	0.2	1780486	1780726	BlankScreen	VGS	55	3	False	lime	180	[405 885 405 675]	[1035 1515  405  675]
386.442	1.0	1780726	1781726	ELCue	VGS	55	3	False	lime	180	[405 885 405 675]	[1035 1515  405  675]
387.852	2.0	1782136	1784161	ShowFixation	ANTI	56	3	False	red	600	[ 90 570 405 675]	[1350 1830  405  675]
389.877	0.2	1784161	1784396	BlankScreen	ANTI	56	3	False	red	600	[ 90 570 405 675]	[1350 1830  405  675]
390.112	1.0	1784396	1785396	ELCue	ANTI	56	3	False	red	600	[ 90 570 405 675]	[1350 1830  405  675]
391.522	2.0	1785806	1787831	ShowFixation	ANTI	57	3	False	red	600	[ 90 570 405 675]	[1350 1830  405  675]
393.547	0.2	1787831	1788066	BlankScreen	ANTI	57	3	False	red	600	[ 90 570 405 675]	[1350 1830  405  675]
393.782	1.0	1788066	1789066	ELCue	ANTI	57	3	False	red	600	[ 90 570 405 675]	[1350 1830  405  675]
395.189	2.0	1789473	1791501	ShowFixation	ANTI	58	3	False	red	180	[1035 1515  405  675]	[405 885 405 675]
397.217	0.2	1791501	1791737	BlankScreen	ANTI	58	3	False	red	180	[1035 1515  405  675]	[405 885 405 675]
397.453	1.0	1791737	1792737	ELCue	ANTI	58	3	False	red	180	[1035 1515  405  675]	[405 885 405 675]
398.861	2.0	1793145	1795172	ShowFixation	ANTI	59	3	False	red	180	[1035 1515  405  675]	[405 885 405 675]
400.888	0.2	1795172	1795407	BlankScreen	ANTI	59	3	False	red	180	[1035 1515  405  675]	[405 885 405 675]
401.123	1.0	1795407	1796407	ELCue	ANTI	59	3	False	red	180	[1035 1515  405  675]	[405 885 405 675]
402.529	2.0	1796813	1798842	ShowFixation	ANTI	60	3	False	red	40	[1350 1830  405  675]	[ 90 570 405 675]
404.558	0.2	1798842	1799077	BlankScreen	ANTI	60	3	False	red	40	[1350 1830  405  675]	[ 90 570 405 675]
404.793	1.0	1799077	1800077	ELCue	ANTI	60	3	False	red	40	[1350 1830  405  675]	[ 90 570 405 675]
406.199	2.0	1800483	1802512	ShowFixation	VGS	61	3	False	lime	40	[ 90 570 405 675]	[1350 1830  405  675]
408.228	0.2	1802512	1802747	BlankScreen	VGS	61	3	False	lime	40	[ 90 570 405 675]	[1350 1830  405  675]
408.463	1.0	1802747	1803747	ELCue	VGS	61	3	False	lime	40	[ 90 570 405 675]	[1350 1830  405  675]
409.871	2.0	1804155	1806182	ShowFixation	VGS	62	3	False	lime	180	[405 885 405 675]	[1035 1515  405  675]
411.898	0.2	1806182	1806418	BlankScreen	VGS	62	3	False	lime	180	[405 885 405 675]	[1035 1515  405  675]
412.134	1.0	1806418	1807418	ELCue	VGS	62	3	False	lime	180	[405 885 405 675]	[1035 1515  405  675]
413.543	6.0	1807827	1813853	ShowFixation	ANTI	63	3	False	red	40	[1350 1830  405  675]	[ 90 570 405 675]
419.569	0.2	1813853	1814092	BlankScreen	ANTI	63	3	False	red	40	[1350 1830  405  675]	[ 90 570 405 675]
419.808	1.0	1814092	1815092	ELCue	ANTI	63	3	False	red	40	[1350 1830  405  675]	[ 90 570 405 675]
421.211	6.0	1815495	1821527	ShowFixation	VGS	64	3	False	lime	180	[405 885 405 675]	[1035 1515  405  675]
427.243	0.2	1821527	1821766	BlankScreen	VGS	64	3	False	lime	180	[405 885 405 675]	[1035 1515  405  675]
427.482	1.0	1821766	1822766	ELCue	VGS	64	3	False	lime	180	[405 885 405 675]	[1035 1515  405  675]
428.892	6.0	1823176	1829201	ShowFixation	VGS	65	3	False	lime	600	[1350 1830  405  675]	[ 90 570 405 675]
434.918	0.2	1829202	1829441	BlankScreen	VGS	65	3	False	lime	600	[1350 1830  405  675]	[ 90 570 405 675]
435.157	1.0	1829441	1830441	ELCue	VGS	65	3	False	lime	600	[1350 1830  405  675]	[ 90 570 405 675]
436.566	6.0	1830850	1836875	ShowFixation	ANTI	66	3	False	red	180	[1035 1515  405  675]	[405 885 405 675]
442.591	0.2	1836875	1837115	BlankScreen	ANTI	66	3	False	red	180	[1035 1515  405  675]	[405 885 405 675]
442.831	1.0	1837115	1838115	ELCue	ANTI	66	3	False	red	180	[1035 1515  405  675]	[405 885 405 675]
444.238	2.0	1838522	1840550	ShowFixation	VGS	67	3	False	lime	460	[1035 1515  405  675]	[405 885 405 675]
446.266	0.2	1840550	1840785	BlankScreen	VGS	67	3	False	lime	460	[1035 1515  405  675]	[405 885 405 675]
446.501	1.0	1840785	1841785	ELCue	VGS	67	3	False	lime	460	[1035 1515  405  675]	[405 885 405 675]
447.887	2.0	1842171	1844203	ShowFixation	ANTI	68	3	False	red	40	[1350 1830  405  675]	[ 90 570 405 675]
449.919	0.2	1844203	1844439	BlankScreen	ANTI	68	3	False	red	40	[1350 1830  405  675]	[ 90 570 405 675]
450.155	1.0	1844439	1845439	ELCue	ANTI	68	3	False	red	40	[1350 1830  405  675]	[ 90 570 405 675]
451.564	6.0	1845848	1851874	ShowFixation	ANTI	69	3	False	red	460	[405 885 405 675]	[1035 1515  405  675]
457.591	0.2	1851875	1852114	BlankScreen	ANTI	69	3	False	red	460	[405 885 405 675]	[1035 1515  405  675]
457.83	1.0	1852114	1853114	ELCue	ANTI	69	3	False	red	460	[405 885 405 675]	[1035 1515  405  675]
459.236	6.0	1853520	1859549	ShowFixation	ANTI	70	3	False	red	600	[ 90 570 405 675]	[1350 1830  405  675]
465.265	0.2	1859549	1859788	BlankScreen	ANTI	70	3	False	red	600	[ 90 570 405 675]	[1350 1830  405  675]
465.504	1.0	1859788	1860788	ELCue	ANTI	70	3	False	red	600	[ 90 570 405 675]	[1350 1830  405  675]
466.912	6.0	1861196	1867223	ShowFixation	VGS	71	3	False	lime	40	[ 90 570 405 675]	[1350 1830  405  675]
472.939	0.2	1867223	1867462	BlankScreen	VGS	71	3	False	lime	40	[ 90 570 405 675]	[1350 1830  405  675]
473.178	1.0	1867462	1868462	ELCue	VGS	71	3	False	lime	40	[ 90 570 405 675]	[1350 1830  405  675]
474.585	6.0	1868869	1874897	ShowFixation	VGS	72	3	False	lime	460	[1035 1515  405  675]	[405 885 405 675]
480.613	0.2	1874897	1875137	BlankScreen	VGS	72	3	False	lime	460	[1035 1515  405  675]	[405 885 405 675]
480.853	1.0	1875137	1876137	ELCue	VGS	72	3	False	lime	460	[1035 1515  405  675]	[405 885 405 675]
482.257	6.0	1876541	1882572	ShowFixation	VGS	73	3	False	lime	40	[ 90 570 405 675]	[1350 1830  405  675]
488.288	0.2	1882572	1882811	BlankScreen	VGS	73	3	False	lime	40	[ 90 570 405 675]	[1350 1830  405  675]
488.527	1.0	1882811	1883811	ELCue	VGS	73	3	False	lime	40	[ 90 570 405 675]	[1350 1830  405  675]
489.931	6.0	1884215	1890246	ShowFixation	ANTI	74	3	False	red	460	[405 885 405 675]	[1035 1515  405  675]
495.962	0.2	1890246	1890485	BlankScreen	ANTI	74	3	False	red	460	[405 885 405 675]	[1035 1515  405  675]
496.201	1.0	1890485	1891485	ELCue	ANTI	74	3	False	red	460	[405 885 405 675]	[1035 1515  405  675]
497.602	2.0	1891886	1893920	ShowFixation	VGS	75	3	False	lime	460	[1035 1515  405  675]	[405 885 405 675]
499.636	0.2	1893920	1894155	BlankScreen	VGS	75	3	False	lime	460	[1035 1515  405  675]	[405 885 405 675]
499.871	1.0	1894155	1895155	ELCue	VGS	75	3	False	lime	460	[1035 1515  405  675]	[405 885 405 675]
501.257	2.0	1895541	1897574	ShowFixation	ANTI	76	3	False	red	460	[405 885 405 675]	[1035 1515  405  675]
503.29	0.2	1897574	1897809	BlankScreen	ANTI	76	3	False	red	460	[405 885 405 675]	[1035 1515  405  675]
503.525	1.0	1897809	1898809	ELCue	ANTI	76	3	False	red	460	[405 885 405 675]	[1035 1515  405  675]
504.935	6.0	1899219	1905244	ShowFixation	ANTI	77	3	False	red	600	[ 90 570 405 675]	[1350 1830  405  675]
510.96	0.2	1905244	1905483	BlankScreen	ANTI	77	3	False	red	600	[ 90 570 405 675]	[1350 1830  405  675]
511.199	1.0	1905483	1906483	ELCue	ANTI	77	3	False	red	600	[ 90 570 405 675]	[1350 1830  405  675]
512.604	6.0	1906888	1912918	ShowFixation	VGS	78	3	False	lime	600	[1350 1830  405  675]	[ 90 570 405 675]
518.634	0.2	1912918	1913157	BlankScreen	VGS	78	3	False	lime	600	[1350 1830  405  675]	[ 90 570 405 675]
518.873	1.0	1913157	1914157	ELCue	VGS	78	3	False	lime	600	[1350 1830  405  675]	[ 90 570 405 675]
520.275	6.0	1914559	1920592	ShowFixation	ANTI	79	3	False	red	40	[1350 1830  405  675]	[ 90 570 405 675]
526.308	0.2	1920592	1920832	BlankScreen	ANTI	79	3	False	red	40	[1350 1830  405  675]	[ 90 570 405 675]
526.548	1.0	1920832	1921832	ELCue	ANTI	79	3	False	red	40	[1350 1830  405  675]	[ 90 570 405 675]
527.958	2.0	1922242	1924267	ShowFixation	VGS	80	3	False	lime	180	[405 885 405 675]	[1035 1515  405  675]
529.983	0.2	1924267	1924502	BlankScreen	VGS	80	3	False	lime	180	[405 885 405 675]	[1035 1515  405  675]
530.218	1.0	1924502	1925502	ELCue	VGS	80	3	False	lime	180	[405 885 405 675]	[1035 1515  405  675]
578.608	6.0	1972892	1978917	ShowFixation	VGS	81	4	False	lime	180	[405 885 405 675]	[1035 1515  405  675]
584.633	0.2	1978917	1979156	BlankScreen	VGS	81	4	False	lime	180	[405 885 405 675]	[1035 1515  405  675]
584.872	1.0	1979156	1980156	ELCue	VGS	81	4	False	lime	180	[405 885 405 675]	[1035 1515  405  675]
586.283	2.0	1980567	1982608	ShowFixation	VGS	82	4	False	lime	460	[1035 1515  405  675]	[405 885 405 675]
588.324	0.2	1982608	1982843	BlankScreen	VGS	82	4	False	lime	460	[1035 1515  405  675]	[405 885 405 675]
588.56	1.0	1982844	1983844	ELCue	VGS	82	4	False	lime	460	[1035 1515  405  675]	[405 885 405 675]
589.969	6.0	1984253	1990279	ShowFixation	VGS	83	4	False	lime	460	[1035 1515  405  675]	[405 885 405 675]
595.995	0.2	1990279	1990518	BlankScreen	VGS	83	4	False	lime	460	[1035 1515  405  675]	[405 885 405 675]
596.234	1.0	1990518	1991518	ELCue	VGS	83	4	False	lime	460	[1035 1515  405  675]	[405 885 405 675]
597.646	2.0	1991930	1993969	ShowFixation	ANTI	84	4	False	red	180	[1035 1515  405  675]	[405 885 405 675]
599.686	0.2	1993970	1994205	BlankScreen	ANTI	84	4	False	red	180	[1035 1515  405  675]	[405 885 405 675]
599.921	1.0	1994205	1995205	ELCue	ANTI	84	4	False	red	180	[1035 1515  405  675]	[405 885 405 675]
601.294	6.0	1995578	2001607	ShowFixation	VGS	85	4	False	lime	600	[1350 1830  405  675]	[ 90 570 405 675]
607.323	0.2	2001607	2001846	BlankScreen	VGS	85	4	False	lime	600	[1350 1830  405  675]	[ 90 570 405 675]
607.562	1.0	2001846	2002846	ELCue	VGS	85	4	False	lime	600	[1350 1830  405  675]	[ 90 570 405 675]
608.97	2.0	2003254	2005281	ShowFixation	VGS	86	4	False	lime	40	[ 90 570 405 675]	[1350 1830  405  675]
610.997	0.2	2005281	2005516	BlankScreen	VGS	86	4	False	lime	40	[ 90 570 405 675]	[1350 1830  405  675]
611.232	1.0	2005516	2006516	ELCue	VGS	86	4	False	lime	40	[ 90 570 405 675]	[1350 1830  405  675]
612.639	2.0	2006923	2008951	ShowFixation	VGS	87	4	False	lime	180	[405 885 405 675]	[1035 1515  405  675]
614.667	0.2	2008951	2009187	BlankScreen	VGS	87	4	False	lime	180	[405 885 405 675]	[1035 1515  405  675]
614.903	1.0	2009187	2010187	ELCue	VGS	87	4	False	lime	180	[405 885 405 675]	[1035 1515  405  675]
616.31	2.0	2010594	2012622	ShowFixation	VGS	88	4	False	lime	600	[1350 1830  405  675]	[ 90 570 405 675]
618.338	0.2	2012622	2012857	BlankScreen	VGS	88	4	False	lime	600	[1350 1830  405  675]	[ 90 570 405 675]
618.573	1.0	2012857	2013857	ELCue	VGS	88	4	False	lime	600	[1350 1830  405  675]	[ 90 570 405 675]
619.979	2.0	2014263	2016292	ShowFixation	ANTI	89	4	False	red	460	[405 885 405 675]	[1035 1515  405  675]
622.008	0.2	2016292	2016527	BlankScreen	ANTI	89	4	False	red	460	[405 885 405 675]	[1035 1515  405  675]
622.243	1.0	2016527	2017527	ELCue	ANTI	89	4	False	red	460	[405 885 405 675]	[1035 1515  405  675]
623.631	2.0	2017915	2019945	ShowFixation	VGS	90	4	False	lime	40	[ 90 570 405 675]	[1350 1830  405  675]
625.661	0.2	2019945	2020181	BlankScreen	VGS	90	4	False	lime	40	[ 90 570 405 675]	[1350 1830  405  675]
625.897	1.0	2020181	2021181	ELCue	VGS	90	4	False	lime	40	[ 90 570 405 675]	[1350 1830  405  675]
627.283	2.0	2021567	2023599	ShowFixation	ANTI	91	4	False	red	40	[1350 1830  405  675]	[ 90 570 405 675]
629.315	0.2	2023599	2023834	BlankScreen	ANTI	91	4	False	red	40	[1350 1830  405  675]	[ 90 570 405 675]
629.55	1.0	2023834	2024834	ELCue	ANTI	91	4	False	red	40	[1350 1830  405  675]	[ 90 570 405 675]
630.953	6.0	2025237	2031269	ShowFixation	VGS	92	4	False	lime	180	[405 885 405 675]	[1035 1515  405  675]
636.985	0.2	2031269	2031509	BlankScreen	VGS	92	4	False	lime	180	[405 885 405 675]	[1035 1515  405  675]
637.225	1.0	2031509	2032509	ELCue	VGS	92	4	False	lime	180	[405 885 405 675]	[1035 1515  405  675]
638.631	2.0	2032915	2034944	ShowFixation	ANTI	93	4	False	red	600	[ 90 570 405 675]	[1350 1830  405  675]
640.66	0.2	2034944	2035179	BlankScreen	ANTI	93	4	False	red	600	[ 90 570 405 675]	[1350 1830  405  675]
640.895	1.0	2035179	2036179	ELCue	ANTI	93	4	False	red	600	[ 90 570 405 675]	[1350 1830  405  675]
642.299	2.0	2036583	2038614	ShowFixation	ANTI	94	4	False	red	40	[1350 1830  405  675]	[ 90 570 405 675]
644.33	0.2	2038614	2038849	BlankScreen	ANTI	94	4	False	red	40	[1350 1830  405  675]	[ 90 570 405 675]
644.565	1.0	2038849	2039849	ELCue	ANTI	94	4	False	red	40	[1350 1830  405  675]	[ 90 570 405 675]
645.966	6.0	2040250	2046284	ShowFixation	ANTI	95	4	False	red	180	[1035 1515  405  675]	[405 885 405 675]
652.0	0.2	2046284	2046523	BlankScreen	ANTI	95	4	False	red	180	[1035 1515  405  675]	[405 885 405 675]
652.239	1.0	2046523	2047523	ELCue	ANTI	95	4	False	red	180	[1035 1515  405  675]	[405 885 405 675]
653.646	6.0	2047930	2053958	ShowFixation	ANTI	96	4	False	red	40	[1350 1830  405  675]	[ 90 570 405 675]
659.674	0.2	2053958	2054198	BlankScreen	ANTI	96	4	False	red	40	[1350 1830  405  675]	[ 90 570 405 675]
659.914	1.0	2054198	2055198	ELCue	ANTI	96	4	False	red	40	[1350 1830  405  675]	[ 90 570 405 675]
661.288	2.0	2055572	2057599	ShowFixation	ANTI	97	4	False	red	180	[1035 1515  405  675]	[405 885 405 675]
663.315	0.2	2057599	2057835	BlankScreen	ANTI	97	4	False	red	180	[1035 1515  405  675]	[405 885 405 675]
663.551	1.0	2057835	2058835	ELCue	ANTI	97	4	False	red	180	[1035 1515  405  675]	[405 885 405 675]
664.953	6.0	2059237	2065270	ShowFixation	VGS	98	4	False	lime	40	[ 90 570 405 675]	[1350 1830  405  675]
670.986	0.2	2065270	2065509	BlankScreen	VGS	98	4	False	lime	40	[ 90 570 405 675]	[1350 1830  405  675]
671.225	1.0	2065509	2066509	ELCue	VGS	98	4	False	lime	40	[ 90 570 405 675]	[1350 1830  405  675]
672.636	6.0	2066920	2072961	ShowFixation	ANTI	99	4	False	red	180	[1035 1515  405  675]	[405 885 405 675]
678.677	0.2	2072961	2073200	BlankScreen	ANTI	99	4	False	red	180	[1035 1515  405  675]	[405 885 405 675]
678.916	1.0	2073200	2074200	ELCue	ANTI	99	4	False	red	180	[1035 1515  405  675]	[405 885 405 675]
680.285	2.0	2074569	2076601	ShowFixation	VGS	100	4	False	lime	460	[1035 1515  405  675]	[405 885 405 675]
682.317	0.2	2076601	2076837	BlankScreen	VGS	100	4	False	lime	460	[1035 1515  405  675]	[405 885 405 675]
682.553	1.0	2076837	2077837	ELCue	VGS	100	4	False	lime	460	[1035 1515  405  675]	[405 885 405 675]
683.957	6.0	2078241	2084272	ShowFixation	ANTI	101	4	False	red	40	[1350 1830  405  675]	[ 90 570 405 675]
689.988	0.2	2084272	2084511	BlankScreen	ANTI	101	4	False	red	40	[1350 1830  405  675]	[ 90 570 405 675]
690.227	1.0	2084511	2085511	ELCue	ANTI	101	4	False	red	40	[1350 1830  405  675]	[ 90 570 405 675]
691.635	6.0	2085919	2091946	ShowFixation	ANTI	102	4	False	red	460	[405 885 405 675]	[1035 1515  405  675]
697.662	0.2	2091946	2092185	BlankScreen	ANTI	102	4	False	red	460	[405 885 405 675]	[1035 1515  405  675]
697.901	1.0	2092185	2093185	ELCue	ANTI	102	4	False	red	460	[405 885 405 675]	[1035 1515  405  675]
699.306	6.0	2093590	2099620	ShowFixation	ANTI	103	4	False	red	460	[405 885 405 675]	[1035 1515  405  675]
705.336	0.2	2099620	2099859	BlankScreen	ANTI	103	4	False	red	460	[405 885 405 675]	[1035 1515  405  675]
705.575	1.0	2099859	2100859	ELCue	ANTI	103	4	False	red	460	[405 885 405 675]	[1035 1515  405  675]
706.986	2.0	2101270	2103294	ShowFixation	ANTI	104	4	False	red	460	[405 885 405 675]	[1035 1515  405  675]
709.01	0.2	2103294	2103530	BlankScreen	ANTI	104	4	False	red	460	[405 885 405 675]	[1035 1515  405  675]
709.246	1.0	2103530	2104530	ELCue	ANTI	104	4	False	red	460	[405 885 405 675]	[1035 1515  405  675]
710.654	6.0	2104938	2110965	ShowFixation	VGS	105	4	False	lime	600	[1350 1830  405  675]	[ 90 570 405 675]
716.681	0.2	2110965	2111204	BlankScreen	VGS	105	4	False	lime	600	[1350 1830  405  675]	[ 90 570 405 675]
716.92	1.0	2111204	2112204	ELCue	VGS	105	4	False	lime	600	[1350 1830  405  675]	[ 90 570 405 675]
718.331	6.0	2112615	2118656	ShowFixation	VGS	106	4	False	lime	460	[1035 1515  405  675]	[405 885 405 675]
724.372	0.2	2118656	2118895	BlankScreen	VGS	106	4	False	lime	460	[1035 1515  405  675]	[405 885 405 675]
724.612	1.0	2118896	2119896	ELCue	VGS	106	4	False	lime	460	[1035 1515  405  675]	[405 885 405 675]
726.015	6.0	2120299	2126330	ShowFixation	ANTI	107	4	False	red	600	[ 90 570 405 675]	[1350 1830  405  675]
732.047	0.2	2126331	2126569	BlankScreen	ANTI	107	4	False	red	600	[ 90 570 405 675]	[1350 1830  405  675]
732.286	1.0	2126570	2127570	ELCue	ANTI	107	4	False	red	600	[ 90 570 405 675]	[1350 1830  405  675]
733.689	6.0	2127973	2134005	ShowFixation	VGS	108	4	False	lime	40	[ 90 570 405 675]	[1350 1830  405  675]
739.721	0.2	2134005	2134244	BlankScreen	VGS	108	4	False	lime	40	[ 90 570 405 675]	[1350 1830  405  675]
739.96	1.0	2134244	2135244	ELCue	VGS	108	4	False	lime	40	[ 90 570 405 675]	[1350 1830  405  675]
741.35	6.0	2135634	2141663	ShowFixation	ANTI	109	4	False	red	600	[ 90 570 405 675]	[1350 1830  405  675]
747.379	0.2	2141663	2141902	BlankScreen	ANTI	109	4	False	red	600	[ 90 570 405 675]	[1350 1830  405  675]
747.618	1.0	2141902	2142902	ELCue	ANTI	109	4	False	red	600	[ 90 570 405 675]	[1350 1830  405  675]
749.025	2.0	2143309	2145337	ShowFixation	ANTI	110	4	False	red	600	[ 90 570 405 675]	[1350 1830  405  675]
751.053	0.2	2145337	2145572	BlankScreen	ANTI	110	4	False	red	600	[ 90 570 405 675]	[1350 1830  405  675]
751.288	1.0	2145572	2146572	ELCue	ANTI	110	4	False	red	600	[ 90 570 405 675]	[1350 1830  405  675]
752.693	2.0	2146977	2149007	ShowFixation	VGS	111	4	False	lime	600	[1350 1830  405  675]	[ 90 570 405 675]
754.723	0.2	2149007	2149243	BlankScreen	VGS	111	4	False	lime	600	[1350 1830  405  675]	[ 90 570 405 675]
754.959	1.0	2149243	2150243	ELCue	VGS	111	4	False	lime	600	[1350 1830  405  675]	[ 90 570 405 675]
756.332	2.0	2150616	2152644	ShowFixation	VGS	112	4	False	lime	180	[405 885 405 675]	[1035 1515  405  675]
758.36	0.2	2152644	2152879	BlankScreen	VGS	112	4	False	lime	180	[405 885 405 675]	[1035 1515  405  675]
758.595	1.0	2152879	2153879	ELCue	VGS	112	4	False	lime	180	[405 885 405 675]	[1035 1515  405  675]
