onset	duration	startTime	stopTime	eventIdentifier	trial_type	trial_number	block_number	is_practice	fixation_color	cue_side	aoi_correct	aoi_incorrect
0.15	2.0	390722	392757	ShowFixation	VGS	1	1	True	lime	180	[405 885 405 675]	[1035 1515  405  675]
2.185	0.2	392757	392992	BlankScreen	VGS	1	1	True	lime	180	[405 885 405 675]	[1035 1515  405  675]
2.42	1.0	392992	394033	ELCue	VGS	1	1	True	lime	180	[405 885 405 675]	[1035 1515  405  675]
3.873	6.0	394445	401078	ShowFixation	ANTI	2	1	True	red	180	[1035 1515  405  675]	[405 885 405 675]
10.506	0.2	401078	401317	BlankScreen	ANTI	2	1	True	red	180	[1035 1515  405  675]	[405 885 405 675]
10.745	1.0	401317	402357	ELCue	ANTI	2	1	True	red	180	[1035 1515  405  675]	[405 885 405 675]
12.199	6.0	402771	409403	ShowFixation	ANTI	3	1	True	red	460	[405 885 405 675]	[1035 1515  405  675]
18.831	0.2	409403	409642	BlankScreen	ANTI	3	1	True	red	460	[405 885 405 675]	[1035 1515  405  675]
19.07	1.0	409642	410682	ELCue	ANTI	3	1	True	red	460	[405 885 405 675]	[1035 1515  405  675]
20.534	2.0	411106	413728	ShowFixation	VGS	4	1	True	lime	40	[ 90 570 405 675]	[1350 1830  405  675]
23.156	0.2	413728	413963	BlankScreen	VGS	4	1	True	lime	40	[ 90 570 405 675]	[1350 1830  405  675]
23.391	1.0	413963	415003	ELCue	VGS	4	1	True	lime	40	[ 90 570 405 675]	[1350 1830  405  675]
24.848	6.0	415420	422032	ShowFixation	ANTI	5	1	True	red	600	[ 90 570 405 675]	[1350 1830  405  675]
31.46	0.2	422032	422271	BlankScreen	ANTI	5	1	True	red	600	[ 90 570 405 675]	[1350 1830  405  675]
31.699	1.0	422271	423312	ELCue	ANTI	5	1	True	red	600	[ 90 570 405 675]	[1350 1830  405  675]
33.16	2.0	423732	426357	ShowFixation	ANTI	6	1	True	red	600	[ 90 570 405 675]	[1350 1830  405  675]
35.785	0.2	426357	426592	BlankScreen	ANTI	6	1	True	red	600	[ 90 570 405 675]	[1350 1830  405  675]
36.02	1.0	426592	427633	ELCue	ANTI	6	1	True	red	600	[ 90 570 405 675]	[1350 1830  405  675]
37.483	2.0	428055	430678	ShowFixation	VGS	7	1	True	lime	460	[1035 1515  405  675]	[405 885 405 675]
40.106	0.2	430678	430913	BlankScreen	VGS	7	1	True	lime	460	[1035 1515  405  675]	[405 885 405 675]
40.341	1.0	430913	431954	ELCue	VGS	7	1	True	lime	460	[1035 1515  405  675]	[405 885 405 675]
41.803	6.0	432375	438999	ShowFixation	VGS	8	1	True	lime	600	[1350 1830  405  675]	[ 90 570 405 675]
48.427	0.2	438999	439238	BlankScreen	VGS	8	1	True	lime	600	[1350 1830  405  675]	[ 90 570 405 675]
48.666	1.0	439238	440279	ELCue	VGS	8	1	True	lime	600	[1350 1830  405  675]	[ 90 570 405 675]
50.126	6.0	440698	447323	ShowFixation	ANTI	9	1	True	red	40	[1350 1830  405  675]	[ 90 570 405 675]
56.751	0.2	447323	447563	BlankScreen	ANTI	9	1	True	red	40	[1350 1830  405  675]	[ 90 570 405 675]
56.991	1.0	447563	448600	ELCue	ANTI	9	1	True	red	40	[1350 1830  405  675]	[ 90 570 405 675]
58.414	2.0	448986	451615	ShowFixation	VGS	10	1	True	lime	600	[1350 1830  405  675]	[ 90 570 405 675]
61.043	0.2	451615	451834	BlankScreen	VGS	10	1	True	lime	600	[1350 1830  405  675]	[ 90 570 405 675]
61.262	1.0	451834	452857	ELCue	VGS	10	1	True	lime	600	[1350 1830  405  675]	[ 90 570 405 675]
62.704	6.0	453276	459903	ShowFixation	VGS	11	1	True	lime	40	[ 90 570 405 675]	[1350 1830  405  675]
69.331	0.2	459903	460142	BlankScreen	VGS	11	1	True	lime	40	[ 90 570 405 675]	[1350 1830  405  675]
69.57	1.0	460142	461183	ELCue	VGS	11	1	True	lime	40	[ 90 570 405 675]	[1350 1830  405  675]
71.024	2.0	461596	464227	ShowFixation	ANTI	12	1	True	red	460	[405 885 405 675]	[1035 1515  405  675]
73.655	0.2	464227	464463	BlankScreen	ANTI	12	1	True	red	460	[405 885 405 675]	[1035 1515  405  675]
73.891	1.0	464463	465501	ELCue	ANTI	12	1	True	red	460	[405 885 405 675]	[1035 1515  405  675]
75.332	2.0	465904	468515	ShowFixation	ANTI	13	1	True	red	180	[1035 1515  405  675]	[405 885 405 675]
77.943	0.2	468515	468735	BlankScreen	ANTI	13	1	True	red	180	[1035 1515  405  675]	[405 885 405 675]
78.163	1.0	468735	469758	ELCue	ANTI	13	1	True	red	180	[1035 1515  405  675]	[405 885 405 675]
79.583	2.0	470155	472803	ShowFixation	ANTI	14	1	True	red	40	[1350 1830  405  675]	[ 90 570 405 675]
82.231	0.2	472803	473038	BlankScreen	ANTI	14	1	True	red	40	[1350 1830  405  675]	[ 90 570 405 675]
82.466	1.0	473038	474079	ELCue	ANTI	14	1	True	red	40	[1350 1830  405  675]	[ 90 570 405 675]
83.925	6.0	474497	481123	ShowFixation	VGS	15	1	True	lime	180	[405 885 405 675]	[1035 1515  405  675]
90.551	0.2	481123	481363	BlankScreen	VGS	15	1	True	lime	180	[405 885 405 675]	[1035 1515  405  675]
90.791	1.0	481363	482404	ELCue	VGS	15	1	True	lime	180	[405 885 405 675]	[1035 1515  405  675]
92.252	6.0	482824	489448	ShowFixation	VGS	16	1	True	lime	460	[1035 1515  405  675]	[405 885 405 675]
98.876	0.2	489448	489688	BlankScreen	VGS	16	1	True	lime	460	[1035 1515  405  675]	[405 885 405 675]
99.117	1.0	489689	490729	ELCue	VGS	16	1	True	lime	460	[1035 1515  405  675]	[405 885 405 675]
143.182	2.0	533754	535782	ShowFixation	VGS	17	2	False	lime	180	[405 885 405 675]	[1035 1515  405  675]
145.21	0.2	535782	536018	BlankScreen	VGS	17	2	False	lime	180	[405 885 405 675]	[1035 1515  405  675]
145.446	1.0	536018	537018	ELCue	VGS	17	2	False	lime	180	[405 885 405 675]	[1035 1515  405  675]
146.938	2.0	537510	539536	ShowFixation	ANTI	18	2	False	red	460	[405 885 405 675]	[1035 1515  405  675]
148.964	0.2	539536	539771	BlankScreen	ANTI	18	2	False	red	460	[405 885 405 675]	[1035 1515  405  675]
149.199	1.0	539771	540771	ELCue	ANTI	18	2	False	red	460	[405 885 405 675]	[1035 1515  405  675]
150.617	6.0	541189	547223	ShowFixation	ANTI	19	2	False	red	40	[1350 1830  405  675]	[ 90 570 405 675]
156.651	0.2	547223	547462	BlankScreen	ANTI	19	2	False	red	40	[1350 1830  405  675]	[ 90 570 405 675]
156.89	1.0	547462	548462	ELCue	ANTI	19	2	False	red	40	[1350 1830  405  675]	[ 90 570 405 675]
158.312	6.0	548884	554914	ShowFixation	ANTI	20	2	False	red	460	[405 885 405 675]	[1035 1515  405  675]
164.342	0.2	554914	555153	BlankScreen	ANTI	20	2	False	red	460	[405 885 405 675]	[1035 1515  405  675]
164.581	1.0	555153	556153	ELCue	ANTI	20	2	False	red	460	[405 885 405 675]	[1035 1515  405  675]
166.004	2.0	556576	558605	ShowFixation	ANTI	21	2	False	red	180	[1035 1515  405  675]	[405 885 405 675]
168.033	0.2	558605	558840	BlankScreen	ANTI	21	2	False	red	180	[1035 1515  405  675]	[405 885 405 675]
168.268	1.0	558840	559840	ELCue	ANTI	21	2	False	red	180	[1035 1515  405  675]	[405 885 405 675]
169.69	6.0	560262	566292	ShowFixation	ANTI	22	2	False	red	180	[1035 1515  405  675]	[405 885 405 675]
175.72	0.2	566292	566531	BlankScreen	ANTI	22	2	False	red	180	[1035 1515  405  675]	[405 885 405 675]
175.959	1.0	566531	567531	ELCue	ANTI	22	2	False	red	180	[1035 1515  405  675]	[405 885 405 675]
177.366	2.0	567938	569966	ShowFixation	VGS	23	2	False	lime	40	[ 90 570 405 675]	[1350 1830  405  675]
179.394	0.2	569966	570202	BlankScreen	VGS	23	2	False	lime	40	[ 90 570 405 675]	[1350 1830  405  675]
179.63	1.0	570202	571202	ELCue	VGS	23	2	False	lime	40	[ 90 570 405 675]	[1350 1830  405  675]
181.054	2.0	571626	573653	ShowFixation	ANTI	24	2	False	red	180	[1035 1515  405  675]	[405 885 405 675]
183.081	0.2	573653	573889	BlankScreen	ANTI	24	2	False	red	180	[1035 1515  405  675]	[405 885 405 675]
183.317	1.0	573889	574889	ELCue	ANTI	24	2	False	red	180	[1035 1515  405  675]	[405 885 405 675]
184.737	6.0	575309	581340	ShowFixation	VGS	25	2	False	lime	600	[1350 1830  405  675]	[ 90 570 405 675]
190.768	0.2	581340	581579	BlankScreen	VGS	25	2	False	lime	600	[1350 1830  405  675]	[ 90 570 405 675]
191.007	1.0	581579	582579	ELCue	VGS	25	2	False	lime	600	[1350 1830  405  675]	[ 90 570 405 675]
192.427	2.0	582999	585031	ShowFixation	VGS	26	2	False	lime	600	[1350 1830  405  675]	[ 90 570 405 675]
194.459	0.2	585031	585266	BlankScreen	VGS	26	2	False	lime	600	[1350 1830  405  675]	[ 90 570 405 675]
194.694	1.0	585266	586266	ELCue	VGS	26	2	False	lime	600	[1350 1830  405  675]	[ 90 570 405 675]
196.116	6.0	586688	592718	ShowFixation	ANTI	27	2	False	red	40	[1350 1830  405  675]	[ 90 570 405 675]
202.146	0.2	592718	592957	BlankScreen	ANTI	27	2	False	red	40	[1350 1830  405  675]	[ 90 570 405 675]
202.385	1.0	592957	593957	ELCue	ANTI	27	2	False	red	40	[1350 1830  405  675]	[ 90 570 405 675]
203.808	2.0	594380	596409	ShowFixation	VGS	28	2	False	lime	40	[ 90 570 405 675]	[1350 1830  405  675]
205.837	0.2	596409	596644	BlankScreen	VGS	28	2	False	lime	40	[ 90 570 405 675]	[1350 1830  405  675]
206.072	1.0	596644	597644	ELCue	VGS	28	2	False	lime	40	[ 90 570 405 675]	[1350 1830  405  675]
207.496	6.0	598068	604096	ShowFixation	VGS	29	2	False	lime	40	[ 90 570 405 675]	[1350 1830  405  675]
213.524	0.2	604096	604335	BlankScreen	VGS	29	2	False	lime	40	[ 90 570 405 675]	[1350 1830  405  675]
213.763	1.0	604335	605335	ELCue	VGS	29	2	False	lime	40	[ 90 570 405 675]	[1350 1830  405  675]
215.184	6.0	605756	611787	ShowFixation	ANTI	30	2	False	red	600	[ 90 570 405 675]	[1350 1830  405  675]
221.215	0.2	611787	612026	BlankScreen	ANTI	30	2	False	red	600	[ 90 570 405 675]	[1350 1830  405  675]
221.454	1.0	612026	613026	ELCue	ANTI	30	2	False	red	600	[ 90 570 405 675]	[1350 1830  405  675]
222.879	2.0	613451	615478	ShowFixation	VGS	31	2	False	lime	460	[1035 1515  405  675]	[405 885 405 675]
224.906	0.2	615478	615713	BlankScreen	VGS	31	2	False	lime	460	[1035 1515  405  675]	[405 885 405 675]
225.141	1.0	615713	616713	ELCue	VGS	31	2	False	lime	460	[1035 1515  405  675]	[405 885 405 675]
226.565	2.0	617137	619165	ShowFixation	ANTI	32	2	False	red	600	[ 90 570 405 675]	[1350 1830  405  675]
228.593	0.2	619165	619400	BlankScreen	ANTI	32	2	False	red	600	[ 90 570 405 675]	[1350 1830  405  675]
228.828	1.0	619400	620400	ELCue	ANTI	32	2	False	red	600	[ 90 570 405 675]	[1350 1830  405  675]
230.246	2.0	620818	622852	ShowFixation	ANTI	33	2	False	red	460	[405 885 405 675]	[1035 1515  405  675]
232.28	0.2	622852	623087	BlankScreen	ANTI	33	2	False	red	460	[405 885 405 675]	[1035 1515  405  675]
232.515	1.0	623087	624087	ELCue	ANTI	33	2	False	red	460	[405 885 405 675]	[1035 1515  405  675]
233.933	2.0	624505	626539	ShowFixation	ANTI	34	2	False	red	40	[1350 1830  405  675]	[ 90 570 405 675]
235.967	0.2	626539	626774	BlankScreen	ANTI	34	2	False	red	40	[1350 1830  405  675]	[ 90 570 405 675]
236.202	1.0	626774	627774	ELCue	ANTI	34	2	False	red	40	[1350 1830  405  675]	[ 90 570 405 675]
237.623	6.0	628195	634226	ShowFixation	ANTI	35	2	False	red	600	[ 90 570 405 675]	[1350 1830  405  675]
243.655	0.2	634227	634465	BlankScreen	ANTI	35	2	False	red	600	[ 90 570 405 675]	[1350 1830  405  675]
243.893	1.0	634465	635465	ELCue	ANTI	35	2	False	red	600	[ 90 570 405 675]	[1350 1830  405  675]
245.316	6.0	635888	641918	ShowFixation	VGS	36	2	False	lime	180	[405 885 405 675]	[1035 1515  405  675]
251.346	0.2	641918	642157	BlankScreen	VGS	36	2	False	lime	180	[405 885 405 675]	[1035 1515  405  675]
251.585	1.0	642157	643157	ELCue	VGS	36	2	False	lime	180	[405 885 405 675]	[1035 1515  405  675]
253.007	2.0	643579	645609	ShowFixation	ANTI	37	2	False	red	600	[ 90 570 405 675]	[1350 1830  405  675]
255.037	0.2	645609	645844	BlankScreen	ANTI	37	2	False	red	600	[ 90 570 405 675]	[1350 1830  405  675]
255.272	1.0	645844	646844	ELCue	ANTI	37	2	False	red	600	[ 90 570 405 675]	[1350 1830  405  675]
256.691	2.0	647263	649296	ShowFixation	VGS	38	2	False	lime	180	[405 885 405 675]	[1035 1515  405  675]
258.724	0.2	649296	649531	BlankScreen	VGS	38	2	False	lime	180	[405 885 405 675]	[1035 1515  405  675]
258.959	1.0	649531	650531	ELCue	VGS	38	2	False	lime	180	[405 885 405 675]	[1035 1515  405  675]
260.379	6.0	650951	656983	ShowFixation	ANTI	39	2	False	red	460	[405 885 405 675]	[1035 1515  405  675]
266.411	0.2	656983	657222	BlankScreen	ANTI	39	2	False	red	460	[405 885 405 675]	[1035 1515  405  675]
266.65	1.0	657222	658222	ELCue	ANTI	39	2	False	red	460	[405 885 405 675]	[1035 1515  405  675]
268.072	2.0	658644	660674	ShowFixation	VGS	40	2	False	lime	600	[1350 1830  405  675]	[ 90 570 405 675]
270.102	0.2	660674	660909	BlankScreen	VGS	40	2	False	lime	600	[1350 1830  405  675]	[ 90 570 405 675]
270.337	1.0	660909	661909	ELCue	VGS	40	2	False	lime	600	[1350 1830  405  675]	[ 90 570 405 675]
271.758	2.0	662330	664360	ShowFixation	VGS	41	2	False	lime	460	[1035 1515  405  675]	[405 885 405 675]
273.788	0.2	664360	664596	BlankScreen	VGS	41	2	False	lime	460	[1035 1515  405  675]	[405 885 405 675]
274.024	1.0	664596	665596	ELCue	VGS	41	2	False	lime	460	[1035 1515  405  675]	[405 885 405 675]
275.443	6.0	666015	672047	ShowFixation	VGS	42	2	False	lime	180	[405 885 405 675]	[1035 1515  405  675]
281.475	0.2	672047	672287	BlankScreen	VGS	42	2	False	lime	180	[405 885 405 675]	[1035 1515  405  675]
281.715	1.0	672287	673287	ELCue	VGS	42	2	False	lime	180	[405 885 405 675]	[1035 1515  405  675]
283.134	2.0	673706	675738	ShowFixation	ANTI	43	2	False	red	40	[1350 1830  405  675]	[ 90 570 405 675]
285.166	0.2	675738	675974	BlankScreen	ANTI	43	2	False	red	40	[1350 1830  405  675]	[ 90 570 405 675]
285.402	1.0	675974	676974	ELCue	ANTI	43	2	False	red	40	[1350 1830  405  675]	[ 90 570 405 675]
286.824	6.0	677396	683425	ShowFixation	VGS	44	2	False	lime	460	[1035 1515  405  675]	[405 885 405 675]
292.853	0.2	683425	683665	BlankScreen	VGS	44	2	False	lime	460	[1035 1515  405  675]	[405 885 405 675]
293.093	1.0	683665	684665	ELCue	VGS	44	2	False	lime	460	[1035 1515  405  675]	[405 885 405 675]
294.514	6.0	685086	691116	ShowFixation	VGS	45	2	False	lime	40	[ 90 570 405 675]	[1350 1830  405  675]
300.544	0.2	691116	691356	BlankScreen	VGS	45	2	False	lime	40	[ 90 570 405 675]	[1350 1830  405  675]
300.784	1.0	691356	692356	ELCue	VGS	45	2	False	lime	40	[ 90 570 405 675]	[1350 1830  405  675]
302.204	6.0	692776	698807	ShowFixation	VGS	46	2	False	lime	460	[1035 1515  405  675]	[405 885 405 675]
308.235	0.2	698807	699047	BlankScreen	VGS	46	2	False	lime	460	[1035 1515  405  675]	[405 885 405 675]
308.475	1.0	699047	700047	ELCue	VGS	46	2	False	lime	460	[1035 1515  405  675]	[405 885 405 675]
309.894	6.0	700466	706498	ShowFixation	VGS	47	2	False	lime	600	[1350 1830  405  675]	[ 90 570 405 675]
315.926	0.2	706498	706737	BlankScreen	VGS	47	2	False	lime	600	[1350 1830  405  675]	[ 90 570 405 675]
316.165	1.0	706737	707737	ELCue	VGS	47	2	False	lime	600	[1350 1830  405  675]	[ 90 570 405 675]
317.573	6.0	708145	714172	ShowFixation	ANTI	48	2	False	red	180	[1035 1515  405  675]	[405 885 405 675]
323.6	0.2	714172	714412	BlankScreen	ANTI	48	2	False	red	180	[1035 1515  405  675]	[405 885 405 675]
323.84	1.0	714412	715412	ELCue	ANTI	48	2	False	red	180	[1035 1515  405  675]	[405 885 405 675]
418.7	6.0	809272	815307	ShowFixation	ANTI	49	3	False	red	460	[405 885 405 675]	[1035 1515  405  675]
424.735	0.2	815307	815546	BlankScreen	ANTI	49	3	False	red	460	[405 885 405 675]	[1035 1515  405  675]
424.974	1.0	815546	816546	ELCue	ANTI	49	3	False	red	460	[405 885 405 675]	[1035 1515  405  675]
426.389	6.0	816961	822998	ShowFixation	VGS	50	3	False	lime	180	[405 885 405 675]	[1035 1515  405  675]
432.426	0.2	822998	823237	BlankScreen	VGS	50	3	False	lime	180	[405 885 405 675]	[1035 1515  405  675]
432.665	1.0	823237	824237	ELCue	VGS	50	3	False	lime	180	[405 885 405 675]	[1035 1515  405  675]
434.082	2.0	824654	826689	ShowFixation	VGS	51	3	False	lime	460	[1035 1515  405  675]	[405 885 405 675]
436.117	0.2	826689	826924	BlankScreen	VGS	51	3	False	lime	460	[1035 1515  405  675]	[405 885 405 675]
436.352	1.0	826924	827924	ELCue	VGS	51	3	False	lime	460	[1035 1515  405  675]	[405 885 405 675]
437.771	2.0	828343	830375	ShowFixation	ANTI	52	3	False	red	40	[1350 1830  405  675]	[ 90 570 405 675]
439.803	0.2	830375	830611	BlankScreen	ANTI	52	3	False	red	40	[1350 1830  405  675]	[ 90 570 405 675]
440.039	1.0	830611	831611	ELCue	ANTI	52	3	False	red	40	[1350 1830  405  675]	[ 90 570 405 675]
441.457	2.0	832029	834062	ShowFixation	VGS	53	3	False	lime	600	[1350 1830  405  675]	[ 90 570 405 675]
443.49	0.2	834062	834298	BlankScreen	VGS	53	3	False	lime	600	[1350 1830  405  675]	[ 90 570 405 675]
443.726	1.0	834298	835298	ELCue	VGS	53	3	False	lime	600	[1350 1830  405  675]	[ 90 570 405 675]
445.156	2.0	835728	837766	ShowFixation	VGS	54	3	False	lime	180	[405 885 405 675]	[1035 1515  405  675]
447.194	0.2	837766	838001	BlankScreen	VGS	54	3	False	lime	180	[405 885 405 675]	[1035 1515  405  675]
447.429	1.0	838001	839001	ELCue	VGS	54	3	False	lime	180	[405 885 405 675]	[1035 1515  405  675]
448.851	2.0	839423	841453	ShowFixation	ANTI	55	3	False	red	460	[405 885 405 675]	[1035 1515  405  675]
450.881	0.2	841453	841688	BlankScreen	ANTI	55	3	False	red	460	[405 885 405 675]	[1035 1515  405  675]
451.116	1.0	841688	842688	ELCue	ANTI	55	3	False	red	460	[405 885 405 675]	[1035 1515  405  675]
452.541	6.0	843113	849140	ShowFixation	ANTI	56	3	False	red	600	[ 90 570 405 675]	[1350 1830  405  675]
458.568	0.2	849140	849379	BlankScreen	ANTI	56	3	False	red	600	[ 90 570 405 675]	[1350 1830  405  675]
458.807	1.0	849379	850379	ELCue	ANTI	56	3	False	red	600	[ 90 570 405 675]	[1350 1830  405  675]
460.23	2.0	850802	852831	ShowFixation	ANTI	57	3	False	red	460	[405 885 405 675]	[1035 1515  405  675]
462.259	0.2	852831	853066	BlankScreen	ANTI	57	3	False	red	460	[405 885 405 675]	[1035 1515  405  675]
462.494	1.0	853066	854066	ELCue	ANTI	57	3	False	red	460	[405 885 405 675]	[1035 1515  405  675]
463.912	6.0	854484	860518	ShowFixation	ANTI	58	3	False	red	460	[405 885 405 675]	[1035 1515  405  675]
469.946	0.2	860518	860757	BlankScreen	ANTI	58	3	False	red	460	[405 885 405 675]	[1035 1515  405  675]
470.185	1.0	860757	861757	ELCue	ANTI	58	3	False	red	460	[405 885 405 675]	[1035 1515  405  675]
471.61	6.0	862182	868209	ShowFixation	VGS	59	3	False	lime	180	[405 885 405 675]	[1035 1515  405  675]
477.637	0.2	868209	868448	BlankScreen	VGS	59	3	False	lime	180	[405 885 405 675]	[1035 1515  405  675]
477.876	1.0	868448	869448	ELCue	VGS	59	3	False	lime	180	[405 885 405 675]	[1035 1515  405  675]
479.297	2.0	869869	871900	ShowFixation	VGS	60	3	False	lime	40	[ 90 570 405 675]	[1350 1830  405  675]
481.328	0.2	871900	872135	BlankScreen	VGS	60	3	False	lime	40	[ 90 570 405 675]	[1350 1830  405  675]
481.563	1.0	872135	873135	ELCue	VGS	60	3	False	lime	40	[ 90 570 405 675]	[1350 1830  405  675]
482.99	6.0	873562	879587	ShowFixation	VGS	61	3	False	lime	600	[1350 1830  405  675]	[ 90 570 405 675]
489.015	0.2	879587	879826	BlankScreen	VGS	61	3	False	lime	600	[1350 1830  405  675]	[ 90 570 405 675]
489.254	1.0	879826	880826	ELCue	VGS	61	3	False	lime	600	[1350 1830  405  675]	[ 90 570 405 675]
490.678	2.0	881250	883278	ShowFixation	ANTI	62	3	False	red	180	[1035 1515  405  675]	[405 885 405 675]
492.706	0.2	883278	883513	BlankScreen	ANTI	62	3	False	red	180	[1035 1515  405  675]	[405 885 405 675]
492.941	1.0	883513	884513	ELCue	ANTI	62	3	False	red	180	[1035 1515  405  675]	[405 885 405 675]
494.367	6.0	884939	890965	ShowFixation	VGS	63	3	False	lime	460	[1035 1515  405  675]	[405 885 405 675]
500.393	0.2	890965	891204	BlankScreen	VGS	63	3	False	lime	460	[1035 1515  405  675]	[405 885 405 675]
500.633	1.0	891205	892205	ELCue	VGS	63	3	False	lime	460	[1035 1515  405  675]	[405 885 405 675]
502.057	2.0	892629	894656	ShowFixation	ANTI	64	3	False	red	40	[1350 1830  405  675]	[ 90 570 405 675]
504.084	0.2	894656	894891	BlankScreen	ANTI	64	3	False	red	40	[1350 1830  405  675]	[ 90 570 405 675]
504.319	1.0	894891	895891	ELCue	ANTI	64	3	False	red	40	[1350 1830  405  675]	[ 90 570 405 675]
505.747	6.0	896319	902359	ShowFixation	ANTI	65	3	False	red	180	[1035 1515  405  675]	[405 885 405 675]
511.787	0.2	902359	902599	BlankScreen	ANTI	65	3	False	red	180	[1035 1515  405  675]	[405 885 405 675]
512.027	1.0	902599	903599	ELCue	ANTI	65	3	False	red	180	[1035 1515  405  675]	[405 885 405 675]
513.45	2.0	904022	906051	ShowFixation	VGS	66	3	False	lime	600	[1350 1830  405  675]	[ 90 570 405 675]
515.479	0.2	906051	906286	BlankScreen	VGS	66	3	False	lime	600	[1350 1830  405  675]	[ 90 570 405 675]
515.715	1.0	906287	907287	ELCue	VGS	66	3	False	lime	600	[1350 1830  405  675]	[ 90 570 405 675]
517.135	2.0	907707	909737	ShowFixation	ANTI	67	3	False	red	180	[1035 1515  405  675]	[405 885 405 675]
519.165	0.2	909737	909973	BlankScreen	ANTI	67	3	False	red	180	[1035 1515  405  675]	[405 885 405 675]
519.401	1.0	909973	910973	ELCue	ANTI	67	3	False	red	180	[1035 1515  405  675]	[405 885 405 675]
520.818	2.0	911390	913425	ShowFixation	VGS	68	3	False	lime	460	[1035 1515  405  675]	[405 885 405 675]
522.853	0.2	913425	913660	BlankScreen	VGS	68	3	False	lime	460	[1035 1515  405  675]	[405 885 405 675]
523.088	1.0	913660	914660	ELCue	VGS	68	3	False	lime	460	[1035 1515  405  675]	[405 885 405 675]
524.508	6.0	915080	921111	ShowFixation	VGS	69	3	False	lime	600	[1350 1830  405  675]	[ 90 570 405 675]
530.539	0.2	921111	921350	BlankScreen	VGS	69	3	False	lime	600	[1350 1830  405  675]	[ 90 570 405 675]
530.779	1.0	921351	922351	ELCue	VGS	69	3	False	lime	600	[1350 1830  405  675]	[ 90 570 405 675]
532.202	6.0	922774	928803	ShowFixation	ANTI	70	3	False	red	180	[1035 1515  405  675]	[405 885 405 675]
538.231	0.2	928803	929041	BlankScreen	ANTI	70	3	False	red	180	[1035 1515  405  675]	[405 885 405 675]
538.47	1.0	929042	930042	ELCue	ANTI	70	3	False	red	180	[1035 1515  405  675]	[405 885 405 675]
539.894	2.0	930466	932493	ShowFixation	ANTI	71	3	False	red	600	[ 90 570 405 675]	[1350 1830  405  675]
541.922	0.2	932494	932729	BlankScreen	ANTI	71	3	False	red	600	[ 90 570 405 675]	[1350 1830  405  675]
542.157	1.0	932729	933729	ELCue	ANTI	71	3	False	red	600	[ 90 570 405 675]	[1350 1830  405  675]
543.573	6.0	934145	940181	ShowFixation	VGS	72	3	False	lime	460	[1035 1515  405  675]	[405 885 405 675]
549.609	0.2	940181	940420	BlankScreen	VGS	72	3	False	lime	460	[1035 1515  405  675]	[405 885 405 675]
549.848	1.0	940420	941420	ELCue	VGS	72	3	False	lime	460	[1035 1515  405  675]	[405 885 405 675]
551.265	6.0	941837	947872	ShowFixation	VGS	73	3	False	lime	40	[ 90 570 405 675]	[1350 1830  405  675]
557.3	0.2	947872	948111	BlankScreen	VGS	73	3	False	lime	40	[ 90 570 405 675]	[1350 1830  405  675]
557.539	1.0	948111	949111	ELCue	VGS	73	3	False	lime	40	[ 90 570 405 675]	[1350 1830  405  675]
558.921	2.0	949493	951530	ShowFixation	ANTI	74	3	False	red	600	[ 90 570 405 675]	[1350 1830  405  675]
560.958	0.2	951530	951765	BlankScreen	ANTI	74	3	False	red	600	[ 90 570 405 675]	[1350 1830  405  675]
561.193	1.0	951765	952765	ELCue	ANTI	74	3	False	red	600	[ 90 570 405 675]	[1350 1830  405  675]
562.613	6.0	953185	959216	ShowFixation	VGS	75	3	False	lime	40	[ 90 570 405 675]	[1350 1830  405  675]
568.644	0.2	959216	959456	BlankScreen	VGS	75	3	False	lime	40	[ 90 570 405 675]	[1350 1830  405  675]
568.884	1.0	959456	960456	ELCue	VGS	75	3	False	lime	40	[ 90 570 405 675]	[1350 1830  405  675]
570.305	2.0	960877	962907	ShowFixation	VGS	76	3	False	lime	40	[ 90 570 405 675]	[1350 1830  405  675]
572.335	0.2	962907	963143	BlankScreen	VGS	76	3	False	lime	40	[ 90 570 405 675]	[1350 1830  405  675]
572.571	1.0	963143	964143	ELCue	VGS	76	3	False	lime	40	[ 90 570 405 675]	[1350 1830  405  675]
573.994	2.0	964566	966594	ShowFixation	VGS	77	3	False	lime	180	[405 885 405 675]	[1035 1515  405  675]
576.022	0.2	966594	966830	BlankScreen	VGS	77	3	False	lime	180	[405 885 405 675]	[1035 1515  405  675]
576.258	1.0	966830	967830	ELCue	VGS	77	3	False	lime	180	[405 885 405 675]	[1035 1515  405  675]
577.683	6.0	968255	974281	ShowFixation	ANTI	78	3	False	red	40	[1350 1830  405  675]	[ 90 570 405 675]
583.709	0.2	974281	974521	BlankScreen	ANTI	78	3	False	red	40	[1350 1830  405  675]	[ 90 570 405 675]
583.949	1.0	974521	975521	ELCue	ANTI	78	3	False	red	40	[1350 1830  405  675]	[ 90 570 405 675]
585.367	6.0	975939	981972	ShowFixation	ANTI	79	3	False	red	600	[ 90 570 405 675]	[1350 1830  405  675]
591.4	0.2	981972	982212	BlankScreen	ANTI	79	3	False	red	600	[ 90 570 405 675]	[1350 1830  405  675]
591.64	1.0	982212	983212	ELCue	ANTI	79	3	False	red	600	[ 90 570 405 675]	[1350 1830  405  675]
593.066	6.0	983638	989663	ShowFixation	ANTI	80	3	False	red	40	[1350 1830  405  675]	[ 90 570 405 675]
599.091	0.2	989663	989903	BlankScreen	ANTI	80	3	False	red	40	[1350 1830  405  675]	[ 90 570 405 675]
599.331	1.0	989903	990903	ELCue	ANTI	80	3	False	red	40	[1350 1830  405  675]	[ 90 570 405 675]
686.684	6.0	1077256	1083290	ShowFixation	ANTI	81	4	False	red	180	[1035 1515  405  675]	[405 885 405 675]
692.718	0.2	1083290	1083529	BlankScreen	ANTI	81	4	False	red	180	[1035 1515  405  675]	[405 885 405 675]
692.957	1.0	1083529	1084529	ELCue	ANTI	81	4	False	red	180	[1035 1515  405  675]	[405 885 405 675]
694.377	6.0	1084949	1090981	ShowFixation	ANTI	82	4	False	red	40	[1350 1830  405  675]	[ 90 570 405 675]
700.409	0.2	1090981	1091220	BlankScreen	ANTI	82	4	False	red	40	[1350 1830  405  675]	[ 90 570 405 675]
700.649	1.0	1091221	1092221	ELCue	ANTI	82	4	False	red	40	[1350 1830  405  675]	[ 90 570 405 675]
702.07	2.0	1092642	1094672	ShowFixation	ANTI	83	4	False	red	180	[1035 1515  405  675]	[405 885 405 675]
704.1	0.2	1094672	1094907	BlankScreen	ANTI	83	4	False	red	180	[1035 1515  405  675]	[405 885 405 675]
704.335	1.0	1094907	1095907	ELCue	ANTI	83	4	False	red	180	[1035 1515  405  675]	[405 885 405 675]
705.757	2.0	1096329	1098359	ShowFixation	VGS	84	4	False	lime	600	[1350 1830  405  675]	[ 90 570 405 675]
707.787	0.2	1098359	1098594	BlankScreen	VGS	84	4	False	lime	600	[1350 1830  405  675]	[ 90 570 405 675]
708.022	1.0	1098594	1099594	ELCue	VGS	84	4	False	lime	600	[1350 1830  405  675]	[ 90 570 405 675]
709.445	6.0	1100017	1106046	ShowFixation	ANTI	85	4	False	red	600	[ 90 570 405 675]	[1350 1830  405  675]
715.474	0.2	1106046	1106285	BlankScreen	ANTI	85	4	False	red	600	[ 90 570 405 675]	[1350 1830  405  675]
715.713	1.0	1106285	1107285	ELCue	ANTI	85	4	False	red	600	[ 90 570 405 675]	[1350 1830  405  675]
717.133	6.0	1107705	1113737	ShowFixation	VGS	86	4	False	lime	180	[405 885 405 675]	[1035 1515  405  675]
723.165	0.2	1113737	1113976	BlankScreen	VGS	86	4	False	lime	180	[405 885 405 675]	[1035 1515  405  675]
723.404	1.0	1113976	1114976	ELCue	VGS	86	4	False	lime	180	[405 885 405 675]	[1035 1515  405  675]
724.824	2.0	1115396	1117428	ShowFixation	VGS	87	4	False	lime	180	[405 885 405 675]	[1035 1515  405  675]
726.856	0.2	1117428	1117663	BlankScreen	VGS	87	4	False	lime	180	[405 885 405 675]	[1035 1515  405  675]
727.091	1.0	1117663	1118663	ELCue	VGS	87	4	False	lime	180	[405 885 405 675]	[1035 1515  405  675]
728.514	2.0	1119086	1121115	ShowFixation	ANTI	88	4	False	red	600	[ 90 570 405 675]	[1350 1830  405  675]
730.543	0.2	1121115	1121350	BlankScreen	ANTI	88	4	False	red	600	[ 90 570 405 675]	[1350 1830  405  675]
730.778	1.0	1121350	1122350	ELCue	ANTI	88	4	False	red	600	[ 90 570 405 675]	[1350 1830  405  675]
732.202	2.0	1122774	1124802	ShowFixation	VGS	89	4	False	lime	180	[405 885 405 675]	[1035 1515  405  675]
734.23	0.2	1124802	1125037	BlankScreen	VGS	89	4	False	lime	180	[405 885 405 675]	[1035 1515  405  675]
734.465	1.0	1125037	1126037	ELCue	VGS	89	4	False	lime	180	[405 885 405 675]	[1035 1515  405  675]
735.885	6.0	1126457	1132489	ShowFixation	VGS	90	4	False	lime	600	[1350 1830  405  675]	[ 90 570 405 675]
741.917	0.2	1132489	1132728	BlankScreen	VGS	90	4	False	lime	600	[1350 1830  405  675]	[ 90 570 405 675]
742.156	1.0	1132728	1133728	ELCue	VGS	90	4	False	lime	600	[1350 1830  405  675]	[ 90 570 405 675]
743.562	6.0	1134134	1140163	ShowFixation	VGS	91	4	False	lime	460	[1035 1515  405  675]	[405 885 405 675]
749.591	0.2	1140163	1140402	BlankScreen	VGS	91	4	False	lime	460	[1035 1515  405  675]	[405 885 405 675]
749.83	1.0	1140402	1141402	ELCue	VGS	91	4	False	lime	460	[1035 1515  405  675]	[405 885 405 675]
751.256	6.0	1141828	1147854	ShowFixation	VGS	92	4	False	lime	40	[ 90 570 405 675]	[1350 1830  405  675]
757.282	0.2	1147854	1148093	BlankScreen	VGS	92	4	False	lime	40	[ 90 570 405 675]	[1350 1830  405  675]
757.521	1.0	1148093	1149093	ELCue	VGS	92	4	False	lime	40	[ 90 570 405 675]	[1350 1830  405  675]
758.941	2.0	1149513	1151545	ShowFixation	ANTI	93	4	False	red	180	[1035 1515  405  675]	[405 885 405 675]
760.973	0.2	1151545	1151780	BlankScreen	ANTI	93	4	False	red	180	[1035 1515  405  675]	[405 885 405 675]
761.208	1.0	1151780	1152780	ELCue	ANTI	93	4	False	red	180	[1035 1515  405  675]	[405 885 405 675]
762.627	6.0	1153199	1159232	ShowFixation	VGS	94	4	False	lime	40	[ 90 570 405 675]	[1350 1830  405  675]
768.66	0.2	1159232	1159471	BlankScreen	VGS	94	4	False	lime	40	[ 90 570 405 675]	[1350 1830  405  675]
768.899	1.0	1159471	1160471	ELCue	VGS	94	4	False	lime	40	[ 90 570 405 675]	[1350 1830  405  675]
770.32	2.0	1160892	1162923	ShowFixation	ANTI	95	4	False	red	600	[ 90 570 405 675]	[1350 1830  405  675]
772.351	0.2	1162923	1163158	BlankScreen	ANTI	95	4	False	red	600	[ 90 570 405 675]	[1350 1830  405  675]
772.586	1.0	1163158	1164158	ELCue	ANTI	95	4	False	red	600	[ 90 570 405 675]	[1350 1830  405  675]
774.01	6.0	1164582	1170610	ShowFixation	VGS	96	4	False	lime	180	[405 885 405 675]	[1035 1515  405  675]
780.038	0.2	1170610	1170849	BlankScreen	VGS	96	4	False	lime	180	[405 885 405 675]	[1035 1515  405  675]
780.277	1.0	1170849	1171849	ELCue	VGS	96	4	False	lime	180	[405 885 405 675]	[1035 1515  405  675]
781.703	2.0	1172275	1174301	ShowFixation	ANTI	97	4	False	red	460	[405 885 405 675]	[1035 1515  405  675]
783.729	0.2	1174301	1174536	BlankScreen	ANTI	97	4	False	red	460	[405 885 405 675]	[1035 1515  405  675]
783.964	1.0	1174536	1175536	ELCue	ANTI	97	4	False	red	460	[405 885 405 675]	[1035 1515  405  675]
785.386	2.0	1175958	1177988	ShowFixation	ANTI	98	4	False	red	460	[405 885 405 675]	[1035 1515  405  675]
787.416	0.2	1177988	1178223	BlankScreen	ANTI	98	4	False	red	460	[405 885 405 675]	[1035 1515  405  675]
787.651	1.0	1178223	1179223	ELCue	ANTI	98	4	False	red	460	[405 885 405 675]	[1035 1515  405  675]
789.073	6.0	1179645	1185675	ShowFixation	VGS	99	4	False	lime	600	[1350 1830  405  675]	[ 90 570 405 675]
795.103	0.2	1185675	1185914	BlankScreen	VGS	99	4	False	lime	600	[1350 1830  405  675]	[ 90 570 405 675]
795.342	1.0	1185914	1186914	ELCue	VGS	99	4	False	lime	600	[1350 1830  405  675]	[ 90 570 405 675]
796.764	6.0	1187336	1193365	ShowFixation	ANTI	100	4	False	red	460	[405 885 405 675]	[1035 1515  405  675]
802.793	0.2	1193365	1193605	BlankScreen	ANTI	100	4	False	red	460	[405 885 405 675]	[1035 1515  405  675]
803.033	1.0	1193605	1194605	ELCue	ANTI	100	4	False	red	460	[405 885 405 675]	[1035 1515  405  675]
804.455	2.0	1195027	1197056	ShowFixation	VGS	101	4	False	lime	600	[1350 1830  405  675]	[ 90 570 405 675]
806.484	0.2	1197056	1197292	BlankScreen	VGS	101	4	False	lime	600	[1350 1830  405  675]	[ 90 570 405 675]
806.72	1.0	1197292	1198292	ELCue	VGS	101	4	False	lime	600	[1350 1830  405  675]	[ 90 570 405 675]
808.146	2.0	1198718	1200743	ShowFixation	VGS	102	4	False	lime	40	[ 90 570 405 675]	[1350 1830  405  675]
810.171	0.2	1200743	1200979	BlankScreen	VGS	102	4	False	lime	40	[ 90 570 405 675]	[1350 1830  405  675]
810.407	1.0	1200979	1201979	ELCue	VGS	102	4	False	lime	40	[ 90 570 405 675]	[1350 1830  405  675]
811.827	6.0	1202399	1208430	ShowFixation	ANTI	103	4	False	red	40	[1350 1830  405  675]	[ 90 570 405 675]
817.859	0.2	1208431	1208671	BlankScreen	ANTI	103	4	False	red	40	[1350 1830  405  675]	[ 90 570 405 675]
818.099	1.0	1208671	1209671	ELCue	ANTI	103	4	False	red	40	[1350 1830  405  675]	[ 90 570 405 675]
819.515	2.0	1210087	1212122	ShowFixation	VGS	104	4	False	lime	40	[ 90 570 405 675]	[1350 1830  405  675]
821.55	0.2	1212122	1212358	BlankScreen	VGS	104	4	False	lime	40	[ 90 570 405 675]	[1350 1830  405  675]
821.786	1.0	1212358	1213358	ELCue	VGS	104	4	False	lime	40	[ 90 570 405 675]	[1350 1830  405  675]
823.217	6.0	1213789	1219826	ShowFixation	ANTI	105	4	False	red	460	[405 885 405 675]	[1035 1515  405  675]
829.254	0.2	1219826	1220065	BlankScreen	ANTI	105	4	False	red	460	[405 885 405 675]	[1035 1515  405  675]
829.493	1.0	1220065	1221065	ELCue	ANTI	105	4	False	red	460	[405 885 405 675]	[1035 1515  405  675]
830.915	2.0	1221487	1223517	ShowFixation	VGS	106	4	False	lime	460	[1035 1515  405  675]	[405 885 405 675]
832.945	0.2	1223517	1223752	BlankScreen	VGS	106	4	False	lime	460	[1035 1515  405  675]	[405 885 405 675]
833.18	1.0	1223752	1224752	ELCue	VGS	106	4	False	lime	460	[1035 1515  405  675]	[405 885 405 675]
834.598	2.0	1225170	1227204	ShowFixation	ANTI	107	4	False	red	40	[1350 1830  405  675]	[ 90 570 405 675]
836.632	0.2	1227204	1227439	BlankScreen	ANTI	107	4	False	red	40	[1350 1830  405  675]	[ 90 570 405 675]
836.867	1.0	1227439	1228439	ELCue	ANTI	107	4	False	red	40	[1350 1830  405  675]	[ 90 570 405 675]
838.291	2.0	1228863	1230891	ShowFixation	VGS	108	4	False	lime	460	[1035 1515  405  675]	[405 885 405 675]
840.319	0.2	1230891	1231126	BlankScreen	VGS	108	4	False	lime	460	[1035 1515  405  675]	[405 885 405 675]
840.554	1.0	1231126	1232126	ELCue	VGS	108	4	False	lime	460	[1035 1515  405  675]	[405 885 405 675]
841.973	6.0	1232545	1238578	ShowFixation	VGS	109	4	False	lime	460	[1035 1515  405  675]	[405 885 405 675]
848.006	0.2	1238578	1238817	BlankScreen	VGS	109	4	False	lime	460	[1035 1515  405  675]	[405 885 405 675]
848.245	1.0	1238817	1239817	ELCue	VGS	109	4	False	lime	460	[1035 1515  405  675]	[405 885 405 675]
849.667	6.0	1240239	1246269	ShowFixation	ANTI	110	4	False	red	180	[1035 1515  405  675]	[405 885 405 675]
855.697	0.2	1246269	1246508	BlankScreen	ANTI	110	4	False	red	180	[1035 1515  405  675]	[405 885 405 675]
855.936	1.0	1246508	1247508	ELCue	ANTI	110	4	False	red	180	[1035 1515  405  675]	[405 885 405 675]
857.354	6.0	1247926	1253960	ShowFixation	ANTI	111	4	False	red	600	[ 90 570 405 675]	[1350 1830  405  675]
863.388	0.2	1253960	1254199	BlankScreen	ANTI	111	4	False	red	600	[ 90 570 405 675]	[1350 1830  405  675]
863.627	1.0	1254199	1255199	ELCue	ANTI	111	4	False	red	600	[ 90 570 405 675]	[1350 1830  405  675]
865.05	2.0	1255622	1257651	ShowFixation	ANTI	112	4	False	red	40	[1350 1830  405  675]	[ 90 570 405 675]
867.079	0.2	1257651	1257886	BlankScreen	ANTI	112	4	False	red	40	[1350 1830  405  675]	[ 90 570 405 675]
867.314	1.0	1257886	1258886	ELCue	ANTI	112	4	False	red	40	[1350 1830  405  675]	[ 90 570 405 675]
