onset	duration	startTime	stopTime	eventIdentifier	trial_type	trial_number	block_number	is_practice	fixation_color	cue_side	aoi_correct	aoi_incorrect
0.146	6.0	1960884	1966921	ShowFixation	ANTI	1	1	True	red	180	[1035 1515  405  675]	[405 885 405 675]
6.183	0.2	1966921	1967160	BlankScreen	ANTI	1	1	True	red	180	[1035 1515  405  675]	[405 885 405 675]
6.422	1.0	1967160	1968201	ELCue	ANTI	1	1	True	red	180	[1035 1515  405  675]	[405 885 405 675]
7.867	6.0	1968605	1975246	ShowFixation	VGS	2	1	True	lime	600	[1350 1830  405  675]	[ 90 570 405 675]
14.508	0.2	1975246	1975485	BlankScreen	VGS	2	1	True	lime	600	[1350 1830  405  675]	[ 90 570 405 675]
14.747	1.0	1975485	1976526	ELCue	VGS	2	1	True	lime	600	[1350 1830  405  675]	[ 90 570 405 675]
16.153	2.0	1976891	1979554	ShowFixation	VGS	3	1	True	lime	180	[405 885 405 675]	[1035 1515  405  675]
18.816	0.2	1979554	1979773	BlankScreen	VGS	3	1	True	lime	180	[405 885 405 675]	[1035 1515  405  675]
19.035	1.0	1979773	1980797	ELCue	VGS	3	1	True	lime	180	[405 885 405 675]	[1035 1515  405  675]
20.446	2.0	1981184	1983842	ShowFixation	ANTI	4	1	True	red	180	[1035 1515  405  675]	[405 885 405 675]
23.104	0.2	1983842	1984077	BlankScreen	ANTI	4	1	True	red	180	[1035 1515  405  675]	[405 885 405 675]
23.339	1.0	1984077	1985118	ELCue	ANTI	4	1	True	red	180	[1035 1515  405  675]	[405 885 405 675]
24.787	2.0	1985525	1988163	ShowFixation	ANTI	5	1	True	red	600	[ 90 570 405 675]	[1350 1830  405  675]
27.425	0.2	1988163	1988398	BlankScreen	ANTI	5	1	True	red	600	[ 90 570 405 675]	[1350 1830  405  675]
27.66	1.0	1988398	1989439	ELCue	ANTI	5	1	True	red	600	[ 90 570 405 675]	[1350 1830  405  675]
29.087	2.0	1989825	1992484	ShowFixation	VGS	6	1	True	lime	40	[ 90 570 405 675]	[1350 1830  405  675]
31.746	0.2	1992484	1992719	BlankScreen	VGS	6	1	True	lime	40	[ 90 570 405 675]	[1350 1830  405  675]
31.981	1.0	1992719	1993760	ELCue	VGS	6	1	True	lime	40	[ 90 570 405 675]	[1350 1830  405  675]
33.426	6.0	1994164	2000805	ShowFixation	VGS	7	1	True	lime	40	[ 90 570 405 675]	[1350 1830  405  675]
40.067	0.2	2000805	2001044	BlankScreen	VGS	7	1	True	lime	40	[ 90 570 405 675]	[1350 1830  405  675]
40.306	1.0	2001044	2002084	ELCue	VGS	7	1	True	lime	40	[ 90 570 405 675]	[1350 1830  405  675]
41.748	6.0	2002486	2009113	ShowFixation	VGS	8	1	True	lime	460	[1035 1515  405  675]	[405 885 405 675]
48.375	0.2	2009113	2009352	BlankScreen	VGS	8	1	True	lime	460	[1035 1515  405  675]	[405 885 405 675]
48.614	1.0	2009352	2010392	ELCue	VGS	8	1	True	lime	460	[1035 1515  405  675]	[405 885 405 675]
50.059	2.0	2010797	2013421	ShowFixation	ANTI	9	1	True	red	40	[1350 1830  405  675]	[ 90 570 405 675]
52.683	0.2	2013421	2013640	BlankScreen	ANTI	9	1	True	red	40	[1350 1830  405  675]	[ 90 570 405 675]
52.902	1.0	2013640	2014664	ELCue	ANTI	9	1	True	red	40	[1350 1830  405  675]	[ 90 570 405 675]
54.326	6.0	2015064	2021709	ShowFixation	ANTI	10	1	True	red	40	[1350 1830  405  675]	[ 90 570 405 675]
60.971	0.2	2021709	2021948	BlankScreen	ANTI	10	1	True	red	40	[1350 1830  405  675]	[ 90 570 405 675]
61.21	1.0	2021948	2022989	ELCue	ANTI	10	1	True	red	40	[1350 1830  405  675]	[ 90 570 405 675]
62.652	2.0	2023390	2026033	ShowFixation	ANTI	11	1	True	red	460	[405 885 405 675]	[1035 1515  405  675]
65.295	0.2	2026033	2026269	BlankScreen	ANTI	11	1	True	red	460	[405 885 405 675]	[1035 1515  405  675]
65.532	1.0	2026270	2027310	ELCue	ANTI	11	1	True	red	460	[405 885 405 675]	[1035 1515  405  675]
66.981	2.0	2027719	2030354	ShowFixation	VGS	12	1	True	lime	460	[1035 1515  405  675]	[405 885 405 675]
69.617	0.2	2030355	2030590	BlankScreen	VGS	12	1	True	lime	460	[1035 1515  405  675]	[405 885 405 675]
69.852	1.0	2030590	2031631	ELCue	VGS	12	1	True	lime	460	[1035 1515  405  675]	[405 885 405 675]
71.299	6.0	2032037	2038676	ShowFixation	VGS	13	1	True	lime	180	[405 885 405 675]	[1035 1515  405  675]
77.938	0.2	2038676	2038916	BlankScreen	VGS	13	1	True	lime	180	[405 885 405 675]	[1035 1515  405  675]
78.178	1.0	2038916	2039956	ELCue	VGS	13	1	True	lime	180	[405 885 405 675]	[1035 1515  405  675]
79.622	2.0	2040360	2043001	ShowFixation	VGS	14	1	True	lime	600	[1350 1830  405  675]	[ 90 570 405 675]
82.263	0.2	2043001	2043237	BlankScreen	VGS	14	1	True	lime	600	[1350 1830  405  675]	[ 90 570 405 675]
82.499	1.0	2043237	2044276	ELCue	VGS	14	1	True	lime	600	[1350 1830  405  675]	[ 90 570 405 675]
83.936	6.0	2044674	2051305	ShowFixation	ANTI	15	1	True	red	460	[405 885 405 675]	[1035 1515  405  675]
90.567	0.2	2051305	2051545	BlankScreen	ANTI	15	1	True	red	460	[405 885 405 675]	[1035 1515  405  675]
90.807	1.0	2051545	2052585	ELCue	ANTI	15	1	True	red	460	[405 885 405 675]	[1035 1515  405  675]
92.252	6.0	2052990	2059614	ShowFixation	ANTI	16	1	True	red	600	[ 90 570 405 675]	[1350 1830  405  675]
98.876	0.2	2059614	2059853	BlankScreen	ANTI	16	1	True	red	600	[ 90 570 405 675]	[1350 1830  405  675]
99.115	1.0	2059853	2060893	ELCue	ANTI	16	1	True	red	600	[ 90 570 405 675]	[1350 1830  405  675]
134.63	2.0	2095368	2097405	ShowFixation	ANTI	17	2	False	red	180	[1035 1515  405  675]	[405 885 405 675]
136.667	0.2	2097405	2097640	BlankScreen	ANTI	17	2	False	red	180	[1035 1515  405  675]	[405 885 405 675]
136.902	1.0	2097640	2098640	ELCue	ANTI	17	2	False	red	180	[1035 1515  405  675]	[405 885 405 675]
138.312	2.0	2099050	2101075	ShowFixation	ANTI	18	2	False	red	460	[405 885 405 675]	[1035 1515  405  675]
140.337	0.2	2101075	2101311	BlankScreen	ANTI	18	2	False	red	460	[405 885 405 675]	[1035 1515  405  675]
140.573	1.0	2101311	2102311	ELCue	ANTI	18	2	False	red	460	[405 885 405 675]	[1035 1515  405  675]
141.982	6.0	2102720	2108746	ShowFixation	VGS	19	2	False	lime	180	[405 885 405 675]	[1035 1515  405  675]
148.008	0.2	2108746	2108985	BlankScreen	VGS	19	2	False	lime	180	[405 885 405 675]	[1035 1515  405  675]
148.247	1.0	2108985	2109985	ELCue	VGS	19	2	False	lime	180	[405 885 405 675]	[1035 1515  405  675]
149.655	6.0	2110393	2116420	ShowFixation	ANTI	20	2	False	red	40	[1350 1830  405  675]	[ 90 570 405 675]
155.682	0.2	2116420	2116659	BlankScreen	ANTI	20	2	False	red	40	[1350 1830  405  675]	[ 90 570 405 675]
155.921	1.0	2116659	2117659	ELCue	ANTI	20	2	False	red	40	[1350 1830  405  675]	[ 90 570 405 675]
157.339	2.0	2118077	2120111	ShowFixation	ANTI	21	2	False	red	40	[1350 1830  405  675]	[ 90 570 405 675]
159.373	0.2	2120111	2120346	BlankScreen	ANTI	21	2	False	red	40	[1350 1830  405  675]	[ 90 570 405 675]
159.608	1.0	2120346	2121346	ELCue	ANTI	21	2	False	red	40	[1350 1830  405  675]	[ 90 570 405 675]
161.018	6.0	2121756	2127781	ShowFixation	ANTI	22	2	False	red	600	[ 90 570 405 675]	[1350 1830  405  675]
167.043	0.2	2127781	2128020	BlankScreen	ANTI	22	2	False	red	600	[ 90 570 405 675]	[1350 1830  405  675]
167.282	1.0	2128020	2129020	ELCue	ANTI	22	2	False	red	600	[ 90 570 405 675]	[1350 1830  405  675]
168.687	2.0	2129425	2131455	ShowFixation	ANTI	23	2	False	red	460	[405 885 405 675]	[1035 1515  405  675]
170.717	0.2	2131455	2131691	BlankScreen	ANTI	23	2	False	red	460	[405 885 405 675]	[1035 1515  405  675]
170.953	1.0	2131691	2132691	ELCue	ANTI	23	2	False	red	460	[405 885 405 675]	[1035 1515  405  675]
172.362	6.0	2133100	2139126	ShowFixation	VGS	24	2	False	lime	460	[1035 1515  405  675]	[405 885 405 675]
178.388	0.2	2139126	2139365	BlankScreen	VGS	24	2	False	lime	460	[1035 1515  405  675]	[405 885 405 675]
178.627	1.0	2139365	2140365	ELCue	VGS	24	2	False	lime	460	[1035 1515  405  675]	[405 885 405 675]
180.034	2.0	2140772	2142800	ShowFixation	ANTI	25	2	False	red	40	[1350 1830  405  675]	[ 90 570 405 675]
182.062	0.2	2142800	2143035	BlankScreen	ANTI	25	2	False	red	40	[1350 1830  405  675]	[ 90 570 405 675]
182.297	1.0	2143035	2144035	ELCue	ANTI	25	2	False	red	40	[1350 1830  405  675]	[ 90 570 405 675]
183.7	6.0	2144438	2150470	ShowFixation	ANTI	26	2	False	red	40	[1350 1830  405  675]	[ 90 570 405 675]
189.732	0.2	2150470	2150709	BlankScreen	ANTI	26	2	False	red	40	[1350 1830  405  675]	[ 90 570 405 675]
189.971	1.0	2150709	2151709	ELCue	ANTI	26	2	False	red	40	[1350 1830  405  675]	[ 90 570 405 675]
191.381	6.0	2152119	2158144	ShowFixation	VGS	27	2	False	lime	600	[1350 1830  405  675]	[ 90 570 405 675]
197.406	0.2	2158144	2158385	BlankScreen	VGS	27	2	False	lime	600	[1350 1830  405  675]	[ 90 570 405 675]
197.647	1.0	2158385	2159385	ELCue	VGS	27	2	False	lime	600	[1350 1830  405  675]	[ 90 570 405 675]
199.052	2.0	2159790	2161819	ShowFixation	ANTI	28	2	False	red	600	[ 90 570 405 675]	[1350 1830  405  675]
201.081	0.2	2161819	2162055	BlankScreen	ANTI	28	2	False	red	600	[ 90 570 405 675]	[1350 1830  405  675]
201.317	1.0	2162055	2163055	ELCue	ANTI	28	2	False	red	600	[ 90 570 405 675]	[1350 1830  405  675]
202.723	6.0	2163461	2169490	ShowFixation	ANTI	29	2	False	red	460	[405 885 405 675]	[1035 1515  405  675]
208.752	0.2	2169490	2169729	BlankScreen	ANTI	29	2	False	red	460	[405 885 405 675]	[1035 1515  405  675]
208.991	1.0	2169729	2170729	ELCue	ANTI	29	2	False	red	460	[405 885 405 675]	[1035 1515  405  675]
210.395	2.0	2171133	2173164	ShowFixation	VGS	30	2	False	lime	600	[1350 1830  405  675]	[ 90 570 405 675]
212.426	0.2	2173164	2173400	BlankScreen	VGS	30	2	False	lime	600	[1350 1830  405  675]	[ 90 570 405 675]
212.662	1.0	2173400	2174400	ELCue	VGS	30	2	False	lime	600	[1350 1830  405  675]	[ 90 570 405 675]
214.049	6.0	2174787	2180818	ShowFixation	ANTI	31	2	False	red	180	[1035 1515  405  675]	[405 885 405 675]
220.08	0.2	2180818	2181057	BlankScreen	ANTI	31	2	False	red	180	[1035 1515  405  675]	[405 885 405 675]
220.319	1.0	2181057	2182057	ELCue	ANTI	31	2	False	red	180	[1035 1515  405  675]	[405 885 405 675]
221.73	6.0	2182468	2188509	ShowFixation	VGS	32	2	False	lime	40	[ 90 570 405 675]	[1350 1830  405  675]
227.771	0.2	2188509	2188748	BlankScreen	VGS	32	2	False	lime	40	[ 90 570 405 675]	[1350 1830  405  675]
228.01	1.0	2188748	2189748	ELCue	VGS	32	2	False	lime	40	[ 90 570 405 675]	[1350 1830  405  675]
229.383	2.0	2190121	2192150	ShowFixation	VGS	33	2	False	lime	40	[ 90 570 405 675]	[1350 1830  405  675]
231.412	0.2	2192150	2192385	BlankScreen	VGS	33	2	False	lime	40	[ 90 570 405 675]	[1350 1830  405  675]
231.647	1.0	2192385	2193385	ELCue	VGS	33	2	False	lime	40	[ 90 570 405 675]	[1350 1830  405  675]
233.06	6.0	2193798	2199837	ShowFixation	VGS	34	2	False	lime	460	[1035 1515  405  675]	[405 885 405 675]
239.099	0.2	2199837	2200076	BlankScreen	VGS	34	2	False	lime	460	[1035 1515  405  675]	[405 885 405 675]
239.338	1.0	2200076	2201076	ELCue	VGS	34	2	False	lime	460	[1035 1515  405  675]	[405 885 405 675]
240.732	6.0	2201470	2207511	ShowFixation	VGS	35	2	False	lime	600	[1350 1830  405  675]	[ 90 570 405 675]
246.773	0.2	2207511	2207750	BlankScreen	VGS	35	2	False	lime	600	[1350 1830  405  675]	[ 90 570 405 675]
247.012	1.0	2207750	2208750	ELCue	VGS	35	2	False	lime	600	[1350 1830  405  675]	[ 90 570 405 675]
248.422	2.0	2209160	2211185	ShowFixation	ANTI	36	2	False	red	600	[ 90 570 405 675]	[1350 1830  405  675]
250.447	0.2	2211185	2211420	BlankScreen	ANTI	36	2	False	red	600	[ 90 570 405 675]	[1350 1830  405  675]
250.682	1.0	2211420	2212420	ELCue	ANTI	36	2	False	red	600	[ 90 570 405 675]	[1350 1830  405  675]
252.089	2.0	2212827	2214855	ShowFixation	VGS	37	2	False	lime	40	[ 90 570 405 675]	[1350 1830  405  675]
254.117	0.2	2214855	2215091	BlankScreen	VGS	37	2	False	lime	40	[ 90 570 405 675]	[1350 1830  405  675]
254.353	1.0	2215091	2216091	ELCue	VGS	37	2	False	lime	40	[ 90 570 405 675]	[1350 1830  405  675]
255.767	2.0	2216505	2218542	ShowFixation	VGS	38	2	False	lime	600	[1350 1830  405  675]	[ 90 570 405 675]
257.804	0.2	2218542	2218778	BlankScreen	VGS	38	2	False	lime	600	[1350 1830  405  675]	[ 90 570 405 675]
258.04	1.0	2218778	2219778	ELCue	VGS	38	2	False	lime	600	[1350 1830  405  675]	[ 90 570 405 675]
259.45	2.0	2220188	2222213	ShowFixation	VGS	39	2	False	lime	460	[1035 1515  405  675]	[405 885 405 675]
261.475	0.2	2222213	2222448	BlankScreen	VGS	39	2	False	lime	460	[1035 1515  405  675]	[405 885 405 675]
261.71	1.0	2222448	2223448	ELCue	VGS	39	2	False	lime	460	[1035 1515  405  675]	[405 885 405 675]
263.118	2.0	2223856	2225883	ShowFixation	VGS	40	2	False	lime	180	[405 885 405 675]	[1035 1515  405  675]
265.145	0.2	2225883	2226118	BlankScreen	VGS	40	2	False	lime	180	[405 885 405 675]	[1035 1515  405  675]
265.38	1.0	2226118	2227118	ELCue	VGS	40	2	False	lime	180	[405 885 405 675]	[1035 1515  405  675]
266.795	6.0	2227533	2233570	ShowFixation	VGS	41	2	False	lime	180	[405 885 405 675]	[1035 1515  405  675]
272.832	0.2	2233570	2233809	BlankScreen	VGS	41	2	False	lime	180	[405 885 405 675]	[1035 1515  405  675]
273.071	1.0	2233809	2234809	ELCue	VGS	41	2	False	lime	180	[405 885 405 675]	[1035 1515  405  675]
274.483	6.0	2235221	2241261	ShowFixation	ANTI	42	2	False	red	180	[1035 1515  405  675]	[405 885 405 675]
280.523	0.2	2241261	2241500	BlankScreen	ANTI	42	2	False	red	180	[1035 1515  405  675]	[405 885 405 675]
280.762	1.0	2241500	2242500	ELCue	ANTI	42	2	False	red	180	[1035 1515  405  675]	[405 885 405 675]
282.167	6.0	2242905	2248935	ShowFixation	VGS	43	2	False	lime	40	[ 90 570 405 675]	[1350 1830  405  675]
288.197	0.2	2248935	2249174	BlankScreen	VGS	43	2	False	lime	40	[ 90 570 405 675]	[1350 1830  405  675]
288.436	1.0	2249174	2250174	ELCue	VGS	43	2	False	lime	40	[ 90 570 405 675]	[1350 1830  405  675]
289.844	6.0	2250582	2256609	ShowFixation	ANTI	44	2	False	red	600	[ 90 570 405 675]	[1350 1830  405  675]
295.871	0.2	2256609	2256849	BlankScreen	ANTI	44	2	False	red	600	[ 90 570 405 675]	[1350 1830  405  675]
296.111	1.0	2256849	2257849	ELCue	ANTI	44	2	False	red	600	[ 90 570 405 675]	[1350 1830  405  675]
297.606	2.0	2258344	2260384	ShowFixation	ANTI	45	2	False	red	180	[1035 1515  405  675]	[405 885 405 675]
299.646	0.2	2260384	2260619	BlankScreen	ANTI	45	2	False	red	180	[1035 1515  405  675]	[405 885 405 675]
299.881	1.0	2260619	2261619	ELCue	ANTI	45	2	False	red	180	[1035 1515  405  675]	[405 885 405 675]
301.291	2.0	2262029	2264054	ShowFixation	VGS	46	2	False	lime	460	[1035 1515  405  675]	[405 885 405 675]
303.316	0.2	2264054	2264289	BlankScreen	VGS	46	2	False	lime	460	[1035 1515  405  675]	[405 885 405 675]
303.551	1.0	2264289	2265289	ELCue	VGS	46	2	False	lime	460	[1035 1515  405  675]	[405 885 405 675]
304.953	2.0	2265691	2267724	ShowFixation	VGS	47	2	False	lime	180	[405 885 405 675]	[1035 1515  405  675]
306.986	0.2	2267724	2267960	BlankScreen	VGS	47	2	False	lime	180	[405 885 405 675]	[1035 1515  405  675]
307.222	1.0	2267960	2268960	ELCue	VGS	47	2	False	lime	180	[405 885 405 675]	[1035 1515  405  675]
308.633	6.0	2269371	2275411	ShowFixation	ANTI	48	2	False	red	460	[405 885 405 675]	[1035 1515  405  675]
314.673	0.2	2275411	2275651	BlankScreen	ANTI	48	2	False	red	460	[405 885 405 675]	[1035 1515  405  675]
314.913	1.0	2275651	2276651	ELCue	ANTI	48	2	False	red	460	[405 885 405 675]	[1035 1515  405  675]
369.914	6.0	2330652	2336689	ShowFixation	VGS	49	3	False	lime	40	[ 90 570 405 675]	[1350 1830  405  675]
375.951	0.2	2336689	2336929	BlankScreen	VGS	49	3	False	lime	40	[ 90 570 405 675]	[1350 1830  405  675]
376.191	1.0	2336929	2337929	ELCue	VGS	49	3	False	lime	40	[ 90 570 405 675]	[1350 1830  405  675]
377.584	2.0	2338322	2340347	ShowFixation	ANTI	50	3	False	red	600	[ 90 570 405 675]	[1350 1830  405  675]
379.609	0.2	2340347	2340582	BlankScreen	ANTI	50	3	False	red	600	[ 90 570 405 675]	[1350 1830  405  675]
379.844	1.0	2340582	2341582	ELCue	ANTI	50	3	False	red	600	[ 90 570 405 675]	[1350 1830  405  675]
381.262	2.0	2342000	2344034	ShowFixation	VGS	51	3	False	lime	600	[1350 1830  405  675]	[ 90 570 405 675]
383.296	0.2	2344034	2344269	BlankScreen	VGS	51	3	False	lime	600	[1350 1830  405  675]	[ 90 570 405 675]
383.531	1.0	2344269	2345269	ELCue	VGS	51	3	False	lime	600	[1350 1830  405  675]	[ 90 570 405 675]
384.937	2.0	2345675	2347704	ShowFixation	ANTI	52	3	False	red	40	[1350 1830  405  675]	[ 90 570 405 675]
386.966	0.2	2347704	2347940	BlankScreen	ANTI	52	3	False	red	40	[1350 1830  405  675]	[ 90 570 405 675]
387.202	1.0	2347940	2348940	ELCue	ANTI	52	3	False	red	40	[1350 1830  405  675]	[ 90 570 405 675]
388.612	2.0	2349350	2351375	ShowFixation	VGS	53	3	False	lime	180	[405 885 405 675]	[1035 1515  405  675]
390.637	0.2	2351375	2351610	BlankScreen	VGS	53	3	False	lime	180	[405 885 405 675]	[1035 1515  405  675]
390.872	1.0	2351610	2352610	ELCue	VGS	53	3	False	lime	180	[405 885 405 675]	[1035 1515  405  675]
392.287	2.0	2353025	2355062	ShowFixation	ANTI	54	3	False	red	460	[405 885 405 675]	[1035 1515  405  675]
394.324	0.2	2355062	2355297	BlankScreen	ANTI	54	3	False	red	460	[405 885 405 675]	[1035 1515  405  675]
394.559	1.0	2355297	2356297	ELCue	ANTI	54	3	False	red	460	[405 885 405 675]	[1035 1515  405  675]
395.968	2.0	2356706	2358732	ShowFixation	ANTI	55	3	False	red	460	[405 885 405 675]	[1035 1515  405  675]
397.994	0.2	2358732	2358967	BlankScreen	ANTI	55	3	False	red	460	[405 885 405 675]	[1035 1515  405  675]
398.229	1.0	2358967	2359967	ELCue	ANTI	55	3	False	red	460	[405 885 405 675]	[1035 1515  405  675]
399.643	2.0	2360381	2362419	ShowFixation	ANTI	56	3	False	red	180	[1035 1515  405  675]	[405 885 405 675]
401.681	0.2	2362419	2362654	BlankScreen	ANTI	56	3	False	red	180	[1035 1515  405  675]	[405 885 405 675]
401.916	1.0	2362654	2363654	ELCue	ANTI	56	3	False	red	180	[1035 1515  405  675]	[405 885 405 675]
403.327	6.0	2364065	2370106	ShowFixation	VGS	57	3	False	lime	600	[1350 1830  405  675]	[ 90 570 405 675]
409.368	0.2	2370106	2370345	BlankScreen	VGS	57	3	False	lime	600	[1350 1830  405  675]	[ 90 570 405 675]
409.607	1.0	2370345	2371345	ELCue	VGS	57	3	False	lime	600	[1350 1830  405  675]	[ 90 570 405 675]
411.019	2.0	2371757	2373797	ShowFixation	ANTI	58	3	False	red	180	[1035 1515  405  675]	[405 885 405 675]
413.059	0.2	2373797	2374032	BlankScreen	ANTI	58	3	False	red	180	[1035 1515  405  675]	[405 885 405 675]
413.294	1.0	2374032	2375032	ELCue	ANTI	58	3	False	red	180	[1035 1515  405  675]	[405 885 405 675]
414.686	6.0	2375424	2381450	ShowFixation	ANTI	59	3	False	red	40	[1350 1830  405  675]	[ 90 570 405 675]
420.712	0.2	2381450	2381690	BlankScreen	ANTI	59	3	False	red	40	[1350 1830  405  675]	[ 90 570 405 675]
420.952	1.0	2381690	2382690	ELCue	ANTI	59	3	False	red	40	[1350 1830  405  675]	[ 90 570 405 675]
422.346	6.0	2383084	2389125	ShowFixation	VGS	60	3	False	lime	600	[1350 1830  405  675]	[ 90 570 405 675]
428.387	0.2	2389125	2389364	BlankScreen	VGS	60	3	False	lime	600	[1350 1830  405  675]	[ 90 570 405 675]
428.626	1.0	2389364	2390364	ELCue	VGS	60	3	False	lime	600	[1350 1830  405  675]	[ 90 570 405 675]
430.017	2.0	2390755	2392782	ShowFixation	VGS	61	3	False	lime	600	[1350 1830  405  675]	[ 90 570 405 675]
432.044	0.2	2392782	2393017	BlankScreen	VGS	61	3	False	lime	600	[1350 1830  405  675]	[ 90 570 405 675]
432.279	1.0	2393017	2394017	ELCue	VGS	61	3	False	lime	600	[1350 1830  405  675]	[ 90 570 405 675]
433.686	6.0	2394424	2400453	ShowFixation	ANTI	62	3	False	red	40	[1350 1830  405  675]	[ 90 570 405 675]
439.715	0.2	2400453	2400692	BlankScreen	ANTI	62	3	False	red	40	[1350 1830  405  675]	[ 90 570 405 675]
439.955	1.0	2400693	2401693	ELCue	ANTI	62	3	False	red	40	[1350 1830  405  675]	[ 90 570 405 675]
441.363	2.0	2402101	2404128	ShowFixation	VGS	63	3	False	lime	460	[1035 1515  405  675]	[405 885 405 675]
443.39	0.2	2404128	2404363	BlankScreen	VGS	63	3	False	lime	460	[1035 1515  405  675]	[405 885 405 675]
443.625	1.0	2404363	2405363	ELCue	VGS	63	3	False	lime	460	[1035 1515  405  675]	[405 885 405 675]
445.015	6.0	2405753	2411781	ShowFixation	VGS	64	3	False	lime	460	[1035 1515  405  675]	[405 885 405 675]
451.043	0.2	2411781	2412021	BlankScreen	VGS	64	3	False	lime	460	[1035 1515  405  675]	[405 885 405 675]
451.283	1.0	2412021	2413021	ELCue	VGS	64	3	False	lime	460	[1035 1515  405  675]	[405 885 405 675]
452.686	6.0	2413424	2419456	ShowFixation	ANTI	65	3	False	red	600	[ 90 570 405 675]	[1350 1830  405  675]
458.718	0.2	2419456	2419695	BlankScreen	ANTI	65	3	False	red	600	[ 90 570 405 675]	[1350 1830  405  675]
458.957	1.0	2419695	2420695	ELCue	ANTI	65	3	False	red	600	[ 90 570 405 675]	[1350 1830  405  675]
460.367	6.0	2421105	2427130	ShowFixation	ANTI	66	3	False	red	180	[1035 1515  405  675]	[405 885 405 675]
466.392	0.2	2427130	2427369	BlankScreen	ANTI	66	3	False	red	180	[1035 1515  405  675]	[405 885 405 675]
466.631	1.0	2427369	2428369	ELCue	ANTI	66	3	False	red	180	[1035 1515  405  675]	[405 885 405 675]
468.04	6.0	2428778	2434804	ShowFixation	ANTI	67	3	False	red	460	[405 885 405 675]	[1035 1515  405  675]
474.066	0.2	2434804	2435043	BlankScreen	ANTI	67	3	False	red	460	[405 885 405 675]	[1035 1515  405  675]
474.305	1.0	2435043	2436043	ELCue	ANTI	67	3	False	red	460	[405 885 405 675]	[1035 1515  405  675]
475.716	6.0	2436454	2442495	ShowFixation	VGS	68	3	False	lime	460	[1035 1515  405  675]	[405 885 405 675]
481.757	0.2	2442495	2442734	BlankScreen	VGS	68	3	False	lime	460	[1035 1515  405  675]	[405 885 405 675]
481.996	1.0	2442734	2443734	ELCue	VGS	68	3	False	lime	460	[1035 1515  405  675]	[405 885 405 675]
483.406	6.0	2444144	2450169	ShowFixation	VGS	69	3	False	lime	180	[405 885 405 675]	[1035 1515  405  675]
489.431	0.2	2450169	2450409	BlankScreen	VGS	69	3	False	lime	180	[405 885 405 675]	[1035 1515  405  675]
489.671	1.0	2450409	2451409	ELCue	VGS	69	3	False	lime	180	[405 885 405 675]	[1035 1515  405  675]
491.077	2.0	2451815	2453843	ShowFixation	VGS	70	3	False	lime	460	[1035 1515  405  675]	[405 885 405 675]
493.105	0.2	2453843	2454079	BlankScreen	VGS	70	3	False	lime	460	[1035 1515  405  675]	[405 885 405 675]
493.341	1.0	2454079	2455079	ELCue	VGS	70	3	False	lime	460	[1035 1515  405  675]	[405 885 405 675]
494.75	6.0	2455488	2461514	ShowFixation	ANTI	71	3	False	red	460	[405 885 405 675]	[1035 1515  405  675]
500.776	0.2	2461514	2461753	BlankScreen	ANTI	71	3	False	red	460	[405 885 405 675]	[1035 1515  405  675]
501.015	1.0	2461753	2462753	ELCue	ANTI	71	3	False	red	460	[405 885 405 675]	[1035 1515  405  675]
502.426	2.0	2463164	2465205	ShowFixation	VGS	72	3	False	lime	40	[ 90 570 405 675]	[1350 1830  405  675]
504.467	0.2	2465205	2465440	BlankScreen	VGS	72	3	False	lime	40	[ 90 570 405 675]	[1350 1830  405  675]
504.702	1.0	2465440	2466440	ELCue	VGS	72	3	False	lime	40	[ 90 570 405 675]	[1350 1830  405  675]
506.115	2.0	2466853	2468892	ShowFixation	VGS	73	3	False	lime	40	[ 90 570 405 675]	[1350 1830  405  675]
508.154	0.2	2468892	2469127	BlankScreen	VGS	73	3	False	lime	40	[ 90 570 405 675]	[1350 1830  405  675]
508.389	1.0	2469127	2470127	ELCue	VGS	73	3	False	lime	40	[ 90 570 405 675]	[1350 1830  405  675]
509.781	2.0	2470519	2472545	ShowFixation	ANTI	74	3	False	red	40	[1350 1830  405  675]	[ 90 570 405 675]
511.807	0.2	2472545	2472781	BlankScreen	ANTI	74	3	False	red	40	[1350 1830  405  675]	[ 90 570 405 675]
512.043	1.0	2472781	2473781	ELCue	ANTI	74	3	False	red	40	[1350 1830  405  675]	[ 90 570 405 675]
513.453	2.0	2474191	2476216	ShowFixation	VGS	75	3	False	lime	180	[405 885 405 675]	[1035 1515  405  675]
515.478	0.2	2476216	2476451	BlankScreen	VGS	75	3	False	lime	180	[405 885 405 675]	[1035 1515  405  675]
515.713	1.0	2476451	2477451	ELCue	VGS	75	3	False	lime	180	[405 885 405 675]	[1035 1515  405  675]
517.12	6.0	2477858	2483886	ShowFixation	VGS	76	3	False	lime	180	[405 885 405 675]	[1035 1515  405  675]
523.148	0.2	2483886	2484125	BlankScreen	VGS	76	3	False	lime	180	[405 885 405 675]	[1035 1515  405  675]
523.387	1.0	2484125	2485125	ELCue	VGS	76	3	False	lime	180	[405 885 405 675]	[1035 1515  405  675]
524.798	6.0	2485536	2491577	ShowFixation	VGS	77	3	False	lime	40	[ 90 570 405 675]	[1350 1830  405  675]
530.839	0.2	2491577	2491816	BlankScreen	VGS	77	3	False	lime	40	[ 90 570 405 675]	[1350 1830  405  675]
531.078	1.0	2491816	2492816	ELCue	VGS	77	3	False	lime	40	[ 90 570 405 675]	[1350 1830  405  675]
532.488	6.0	2493226	2499251	ShowFixation	ANTI	78	3	False	red	600	[ 90 570 405 675]	[1350 1830  405  675]
538.513	0.2	2499251	2499490	BlankScreen	ANTI	78	3	False	red	600	[ 90 570 405 675]	[1350 1830  405  675]
538.752	1.0	2499490	2500490	ELCue	ANTI	78	3	False	red	600	[ 90 570 405 675]	[1350 1830  405  675]
540.143	2.0	2500881	2502909	ShowFixation	ANTI	79	3	False	red	600	[ 90 570 405 675]	[1350 1830  405  675]
542.171	0.2	2502909	2503144	BlankScreen	ANTI	79	3	False	red	600	[ 90 570 405 675]	[1350 1830  405  675]
542.406	1.0	2503144	2504144	ELCue	ANTI	79	3	False	red	600	[ 90 570 405 675]	[1350 1830  405  675]
543.816	6.0	2504554	2510579	ShowFixation	ANTI	80	3	False	red	180	[1035 1515  405  675]	[405 885 405 675]
549.841	0.2	2510579	2510818	BlankScreen	ANTI	80	3	False	red	180	[1035 1515  405  675]	[405 885 405 675]
550.08	1.0	2510818	2511818	ELCue	ANTI	80	3	False	red	180	[1035 1515  405  675]	[405 885 405 675]
600.594	6.0	2561332	2567369	ShowFixation	VGS	81	4	False	lime	40	[ 90 570 405 675]	[1350 1830  405  675]
606.631	0.2	2567369	2567609	BlankScreen	VGS	81	4	False	lime	40	[ 90 570 405 675]	[1350 1830  405  675]
606.871	1.0	2567609	2568609	ELCue	VGS	81	4	False	lime	40	[ 90 570 405 675]	[1350 1830  405  675]
608.28	2.0	2569018	2571044	ShowFixation	ANTI	82	4	False	red	40	[1350 1830  405  675]	[ 90 570 405 675]
610.306	0.2	2571044	2571279	BlankScreen	ANTI	82	4	False	red	40	[1350 1830  405  675]	[ 90 570 405 675]
610.541	1.0	2571279	2572279	ELCue	ANTI	82	4	False	red	40	[1350 1830  405  675]	[ 90 570 405 675]
611.948	2.0	2572686	2574714	ShowFixation	VGS	83	4	False	lime	460	[1035 1515  405  675]	[405 885 405 675]
613.976	0.2	2574714	2574949	BlankScreen	VGS	83	4	False	lime	460	[1035 1515  405  675]	[405 885 405 675]
614.211	1.0	2574949	2575949	ELCue	VGS	83	4	False	lime	460	[1035 1515  405  675]	[405 885 405 675]
615.587	2.0	2576325	2578351	ShowFixation	ANTI	84	4	False	red	600	[ 90 570 405 675]	[1350 1830  405  675]
617.613	0.2	2578351	2578586	BlankScreen	ANTI	84	4	False	red	600	[ 90 570 405 675]	[1350 1830  405  675]
617.848	1.0	2578586	2579586	ELCue	ANTI	84	4	False	red	600	[ 90 570 405 675]	[1350 1830  405  675]
619.257	6.0	2579995	2586021	ShowFixation	ANTI	85	4	False	red	600	[ 90 570 405 675]	[1350 1830  405  675]
625.283	0.2	2586021	2586260	BlankScreen	ANTI	85	4	False	red	600	[ 90 570 405 675]	[1350 1830  405  675]
625.522	1.0	2586260	2587260	ELCue	ANTI	85	4	False	red	600	[ 90 570 405 675]	[1350 1830  405  675]
626.935	6.0	2587673	2593712	ShowFixation	VGS	86	4	False	lime	460	[1035 1515  405  675]	[405 885 405 675]
632.974	0.2	2593712	2593951	BlankScreen	VGS	86	4	False	lime	460	[1035 1515  405  675]	[405 885 405 675]
633.213	1.0	2593951	2594951	ELCue	VGS	86	4	False	lime	460	[1035 1515  405  675]	[405 885 405 675]
634.624	2.0	2595362	2597403	ShowFixation	ANTI	87	4	False	red	460	[405 885 405 675]	[1035 1515  405  675]
636.665	0.2	2597403	2597638	BlankScreen	ANTI	87	4	False	red	460	[405 885 405 675]	[1035 1515  405  675]
636.9	1.0	2597638	2598638	ELCue	ANTI	87	4	False	red	460	[405 885 405 675]	[1035 1515  405  675]
638.303	2.0	2599041	2601073	ShowFixation	VGS	88	4	False	lime	180	[405 885 405 675]	[1035 1515  405  675]
640.335	0.2	2601073	2601309	BlankScreen	VGS	88	4	False	lime	180	[405 885 405 675]	[1035 1515  405  675]
640.571	1.0	2601309	2602309	ELCue	VGS	88	4	False	lime	180	[405 885 405 675]	[1035 1515  405  675]
641.978	6.0	2602716	2608744	ShowFixation	VGS	89	4	False	lime	180	[405 885 405 675]	[1035 1515  405  675]
648.006	0.2	2608744	2608983	BlankScreen	VGS	89	4	False	lime	180	[405 885 405 675]	[1035 1515  405  675]
648.245	1.0	2608983	2609983	ELCue	VGS	89	4	False	lime	180	[405 885 405 675]	[1035 1515  405  675]
649.636	6.0	2610374	2616401	ShowFixation	VGS	90	4	False	lime	180	[405 885 405 675]	[1035 1515  405  675]
655.663	0.2	2616401	2616640	BlankScreen	VGS	90	4	False	lime	180	[405 885 405 675]	[1035 1515  405  675]
655.902	1.0	2616640	2617640	ELCue	VGS	90	4	False	lime	180	[405 885 405 675]	[1035 1515  405  675]
657.313	2.0	2618051	2620075	ShowFixation	ANTI	91	4	False	red	180	[1035 1515  405  675]	[405 885 405 675]
659.337	0.2	2620075	2620311	BlankScreen	ANTI	91	4	False	red	180	[1035 1515  405  675]	[405 885 405 675]
659.573	1.0	2620311	2621311	ELCue	ANTI	91	4	False	red	180	[1035 1515  405  675]	[405 885 405 675]
660.985	2.0	2621723	2623762	ShowFixation	VGS	92	4	False	lime	40	[ 90 570 405 675]	[1350 1830  405  675]
663.024	0.2	2623762	2623998	BlankScreen	VGS	92	4	False	lime	40	[ 90 570 405 675]	[1350 1830  405  675]
663.26	1.0	2623998	2624998	ELCue	VGS	92	4	False	lime	40	[ 90 570 405 675]	[1350 1830  405  675]
664.652	6.0	2625390	2631416	ShowFixation	VGS	93	4	False	lime	600	[1350 1830  405  675]	[ 90 570 405 675]
670.678	0.2	2631416	2631655	BlankScreen	VGS	93	4	False	lime	600	[1350 1830  405  675]	[ 90 570 405 675]
670.917	1.0	2631655	2632655	ELCue	VGS	93	4	False	lime	600	[1350 1830  405  675]	[ 90 570 405 675]
672.326	6.0	2633064	2639090	ShowFixation	ANTI	94	4	False	red	460	[405 885 405 675]	[1035 1515  405  675]
678.352	0.2	2639090	2639329	BlankScreen	ANTI	94	4	False	red	460	[405 885 405 675]	[1035 1515  405  675]
678.592	1.0	2639330	2640330	ELCue	ANTI	94	4	False	red	460	[405 885 405 675]	[1035 1515  405  675]
679.982	6.0	2640720	2646749	ShowFixation	ANTI	95	4	False	red	40	[1350 1830  405  675]	[ 90 570 405 675]
686.011	0.2	2646749	2646988	BlankScreen	ANTI	95	4	False	red	40	[1350 1830  405  675]	[ 90 570 405 675]
686.25	1.0	2646988	2647988	ELCue	ANTI	95	4	False	red	40	[1350 1830  405  675]	[ 90 570 405 675]
687.638	6.0	2648376	2654406	ShowFixation	VGS	96	4	False	lime	460	[1035 1515  405  675]	[405 885 405 675]
693.668	0.2	2654406	2654646	BlankScreen	VGS	96	4	False	lime	460	[1035 1515  405  675]	[405 885 405 675]
693.908	1.0	2654646	2655646	ELCue	VGS	96	4	False	lime	460	[1035 1515  405  675]	[405 885 405 675]
695.321	6.0	2656059	2662097	ShowFixation	VGS	97	4	False	lime	40	[ 90 570 405 675]	[1350 1830  405  675]
701.359	0.2	2662097	2662337	BlankScreen	VGS	97	4	False	lime	40	[ 90 570 405 675]	[1350 1830  405  675]
701.599	1.0	2662337	2663337	ELCue	VGS	97	4	False	lime	40	[ 90 570 405 675]	[1350 1830  405  675]
703.005	6.0	2663743	2669771	ShowFixation	ANTI	98	4	False	red	180	[1035 1515  405  675]	[405 885 405 675]
709.033	0.2	2669771	2670011	BlankScreen	ANTI	98	4	False	red	180	[1035 1515  405  675]	[405 885 405 675]
709.273	1.0	2670011	2671011	ELCue	ANTI	98	4	False	red	180	[1035 1515  405  675]	[405 885 405 675]
710.682	6.0	2671420	2677446	ShowFixation	ANTI	99	4	False	red	460	[405 885 405 675]	[1035 1515  405  675]
716.708	0.2	2677446	2677685	BlankScreen	ANTI	99	4	False	red	460	[405 885 405 675]	[1035 1515  405  675]
716.947	1.0	2677685	2678685	ELCue	ANTI	99	4	False	red	460	[405 885 405 675]	[1035 1515  405  675]
718.357	2.0	2679095	2681120	ShowFixation	VGS	100	4	False	lime	600	[1350 1830  405  675]	[ 90 570 405 675]
720.382	0.2	2681120	2681355	BlankScreen	VGS	100	4	False	lime	600	[1350 1830  405  675]	[ 90 570 405 675]
720.617	1.0	2681355	2682355	ELCue	VGS	100	4	False	lime	600	[1350 1830  405  675]	[ 90 570 405 675]
722.021	6.0	2682759	2688790	ShowFixation	VGS	101	4	False	lime	600	[1350 1830  405  675]	[ 90 570 405 675]
728.052	0.2	2688790	2689030	BlankScreen	VGS	101	4	False	lime	600	[1350 1830  405  675]	[ 90 570 405 675]
728.292	1.0	2689030	2690030	ELCue	VGS	101	4	False	lime	600	[1350 1830  405  675]	[ 90 570 405 675]
729.698	2.0	2690436	2692465	ShowFixation	VGS	102	4	False	lime	180	[405 885 405 675]	[1035 1515  405  675]
731.727	0.2	2692465	2692700	BlankScreen	VGS	102	4	False	lime	180	[405 885 405 675]	[1035 1515  405  675]
731.962	1.0	2692700	2693700	ELCue	VGS	102	4	False	lime	180	[405 885 405 675]	[1035 1515  405  675]
733.375	6.0	2694113	2700151	ShowFixation	ANTI	103	4	False	red	40	[1350 1830  405  675]	[ 90 570 405 675]
739.413	0.2	2700151	2700391	BlankScreen	ANTI	103	4	False	red	40	[1350 1830  405  675]	[ 90 570 405 675]
739.653	1.0	2700391	2701391	ELCue	ANTI	103	4	False	red	40	[1350 1830  405  675]	[ 90 570 405 675]
741.059	6.0	2701797	2707826	ShowFixation	ANTI	104	4	False	red	180	[1035 1515  405  675]	[405 885 405 675]
747.088	0.2	2707826	2708065	BlankScreen	ANTI	104	4	False	red	180	[1035 1515  405  675]	[405 885 405 675]
747.327	1.0	2708065	2709065	ELCue	ANTI	104	4	False	red	180	[1035 1515  405  675]	[405 885 405 675]
748.734	2.0	2709472	2711500	ShowFixation	ANTI	105	4	False	red	180	[1035 1515  405  675]	[405 885 405 675]
750.762	0.2	2711500	2711735	BlankScreen	ANTI	105	4	False	red	180	[1035 1515  405  675]	[405 885 405 675]
750.997	1.0	2711735	2712735	ELCue	ANTI	105	4	False	red	180	[1035 1515  405  675]	[405 885 405 675]
752.408	2.0	2713146	2715187	ShowFixation	ANTI	106	4	False	red	460	[405 885 405 675]	[1035 1515  405  675]
754.449	0.2	2715187	2715422	BlankScreen	ANTI	106	4	False	red	460	[405 885 405 675]	[1035 1515  405  675]
754.684	1.0	2715422	2716422	ELCue	ANTI	106	4	False	red	460	[405 885 405 675]	[1035 1515  405  675]
756.093	2.0	2716831	2718857	ShowFixation	VGS	107	4	False	lime	460	[1035 1515  405  675]	[405 885 405 675]
758.119	0.2	2718857	2719093	BlankScreen	VGS	107	4	False	lime	460	[1035 1515  405  675]	[405 885 405 675]
758.355	1.0	2719093	2720093	ELCue	VGS	107	4	False	lime	460	[1035 1515  405  675]	[405 885 405 675]
759.763	2.0	2720501	2722528	ShowFixation	VGS	108	4	False	lime	40	[ 90 570 405 675]	[1350 1830  405  675]
761.79	0.2	2722528	2722763	BlankScreen	VGS	108	4	False	lime	40	[ 90 570 405 675]	[1350 1830  405  675]
762.025	1.0	2722763	2723763	ELCue	VGS	108	4	False	lime	40	[ 90 570 405 675]	[1350 1830  405  675]
763.436	2.0	2724174	2726215	ShowFixation	ANTI	109	4	False	red	40	[1350 1830  405  675]	[ 90 570 405 675]
765.477	0.2	2726215	2726450	BlankScreen	ANTI	109	4	False	red	40	[1350 1830  405  675]	[ 90 570 405 675]
765.712	1.0	2726450	2727450	ELCue	ANTI	109	4	False	red	40	[1350 1830  405  675]	[ 90 570 405 675]
767.089	6.0	2727827	2733851	ShowFixation	ANTI	110	4	False	red	600	[ 90 570 405 675]	[1350 1830  405  675]
773.113	0.2	2733851	2734091	BlankScreen	ANTI	110	4	False	red	600	[ 90 570 405 675]	[1350 1830  405  675]
773.353	1.0	2734091	2735091	ELCue	ANTI	110	4	False	red	600	[ 90 570 405 675]	[1350 1830  405  675]
774.74	2.0	2735478	2737509	ShowFixation	ANTI	111	4	False	red	600	[ 90 570 405 675]	[1350 1830  405  675]
776.771	0.2	2737509	2737744	BlankScreen	ANTI	111	4	False	red	600	[ 90 570 405 675]	[1350 1830  405  675]
777.006	1.0	2737744	2738744	ELCue	ANTI	111	4	False	red	600	[ 90 570 405 675]	[1350 1830  405  675]
778.398	2.0	2739136	2741163	ShowFixation	VGS	112	4	False	lime	600	[1350 1830  405  675]	[ 90 570 405 675]
780.425	0.2	2741163	2741398	BlankScreen	VGS	112	4	False	lime	600	[1350 1830  405  675]	[ 90 570 405 675]
780.66	1.0	2741398	2742398	ELCue	VGS	112	4	False	lime	600	[1350 1830  405  675]	[ 90 570 405 675]
