onset	duration	startTime	stopTime	eventIdentifier	trial_type	trial_number	block_number	is_practice	fixation_color	cue_side	aoi_correct	aoi_incorrect
0.15	6.0	5883686	5889726	ShowFixation	VGS	1	1	True	lime	180	[405 885 405 675]	[1035 1515  405  675]
6.19	0.2	5889726	5889965	BlankScreen	VGS	1	1	True	lime	180	[405 885 405 675]	[1035 1515  405  675]
6.429	1.0	5889965	5891006	ELCue	VGS	1	1	True	lime	180	[405 885 405 675]	[1035 1515  405  675]
7.889	6.0	5891425	5898050	ShowFixation	ANTI	2	1	True	red	40	[1350 1830  405  675]	[ 90 570 405 675]
14.514	0.2	5898050	5898290	BlankScreen	ANTI	2	1	True	red	40	[1350 1830  405  675]	[ 90 570 405 675]
14.754	1.0	5898290	5899331	ELCue	ANTI	2	1	True	red	40	[1350 1830  405  675]	[ 90 570 405 675]
16.211	6.0	5899747	5906375	ShowFixation	VGS	3	1	True	lime	40	[ 90 570 405 675]	[1350 1830  405  675]
22.839	0.2	5906375	5906615	BlankScreen	VGS	3	1	True	lime	40	[ 90 570 405 675]	[1350 1830  405  675]
23.079	1.0	5906615	5907655	ELCue	VGS	3	1	True	lime	40	[ 90 570 405 675]	[1350 1830  405  675]
24.538	6.0	5908074	5914700	ShowFixation	ANTI	4	1	True	red	180	[1035 1515  405  675]	[405 885 405 675]
31.164	0.2	5914700	5914940	BlankScreen	ANTI	4	1	True	red	180	[1035 1515  405  675]	[405 885 405 675]
31.404	1.0	5914940	5915978	ELCue	ANTI	4	1	True	red	180	[1035 1515  405  675]	[405 885 405 675]
32.849	2.0	5916385	5918992	ShowFixation	VGS	5	1	True	lime	460	[1035 1515  405  675]	[405 885 405 675]
35.456	0.2	5918992	5919210	BlankScreen	VGS	5	1	True	lime	460	[1035 1515  405  675]	[405 885 405 675]
35.674	1.0	5919210	5920234	ELCue	VGS	5	1	True	lime	460	[1035 1515  405  675]	[405 885 405 675]
37.11	6.0	5920646	5927279	ShowFixation	VGS	6	1	True	lime	460	[1035 1515  405  675]	[405 885 405 675]
43.743	0.2	5927279	5927519	BlankScreen	VGS	6	1	True	lime	460	[1035 1515  405  675]	[405 885 405 675]
43.983	1.0	5927519	5928559	ELCue	VGS	6	1	True	lime	460	[1035 1515  405  675]	[405 885 405 675]
45.442	6.0	5928978	5935604	ShowFixation	VGS	7	1	True	lime	600	[1350 1830  405  675]	[ 90 570 405 675]
52.068	0.2	5935604	5935843	BlankScreen	VGS	7	1	True	lime	600	[1350 1830  405  675]	[ 90 570 405 675]
52.307	1.0	5935843	5936885	ELCue	VGS	7	1	True	lime	600	[1350 1830  405  675]	[ 90 570 405 675]
53.767	2.0	5937303	5939929	ShowFixation	ANTI	8	1	True	red	40	[1350 1830  405  675]	[ 90 570 405 675]
56.393	0.2	5939929	5940164	BlankScreen	ANTI	8	1	True	red	40	[1350 1830  405  675]	[ 90 570 405 675]
56.628	1.0	5940164	5941205	ELCue	ANTI	8	1	True	red	40	[1350 1830  405  675]	[ 90 570 405 675]
58.085	2.0	5941621	5944250	ShowFixation	VGS	9	1	True	lime	600	[1350 1830  405  675]	[ 90 570 405 675]
60.715	0.2	5944251	5944485	BlankScreen	VGS	9	1	True	lime	600	[1350 1830  405  675]	[ 90 570 405 675]
60.949	1.0	5944485	5945526	ELCue	VGS	9	1	True	lime	600	[1350 1830  405  675]	[ 90 570 405 675]
62.41	2.0	5945946	5948571	ShowFixation	ANTI	10	1	True	red	600	[ 90 570 405 675]	[1350 1830  405  675]
65.036	0.2	5948572	5948806	BlankScreen	ANTI	10	1	True	red	600	[ 90 570 405 675]	[1350 1830  405  675]
65.27	1.0	5948806	5949844	ELCue	ANTI	10	1	True	red	600	[ 90 570 405 675]	[1350 1830  405  675]
66.732	6.0	5950268	5956893	ShowFixation	ANTI	11	1	True	red	460	[405 885 405 675]	[1035 1515  405  675]
73.357	0.2	5956893	5957132	BlankScreen	ANTI	11	1	True	red	460	[405 885 405 675]	[1035 1515  405  675]
73.596	1.0	5957132	5958172	ELCue	ANTI	11	1	True	red	460	[405 885 405 675]	[1035 1515  405  675]
75.056	6.0	5958592	5965218	ShowFixation	ANTI	12	1	True	red	600	[ 90 570 405 675]	[1350 1830  405  675]
81.682	0.2	5965218	5965457	BlankScreen	ANTI	12	1	True	red	600	[ 90 570 405 675]	[1350 1830  405  675]
81.921	1.0	5965457	5966497	ELCue	ANTI	12	1	True	red	600	[ 90 570 405 675]	[1350 1830  405  675]
83.374	2.0	5966910	5969543	ShowFixation	ANTI	13	1	True	red	460	[405 885 405 675]	[1035 1515  405  675]
86.007	0.2	5969543	5969778	BlankScreen	ANTI	13	1	True	red	460	[405 885 405 675]	[1035 1515  405  675]
86.242	1.0	5969778	5970815	ELCue	ANTI	13	1	True	red	460	[405 885 405 675]	[1035 1515  405  675]
87.704	2.0	5971240	5973864	ShowFixation	VGS	14	1	True	lime	40	[ 90 570 405 675]	[1350 1830  405  675]
90.328	0.2	5973864	5974099	BlankScreen	VGS	14	1	True	lime	40	[ 90 570 405 675]	[1350 1830  405  675]
90.563	1.0	5974099	5975139	ELCue	VGS	14	1	True	lime	40	[ 90 570 405 675]	[1350 1830  405  675]
91.986	2.0	5975522	5978185	ShowFixation	ANTI	15	1	True	red	180	[1035 1515  405  675]	[405 885 405 675]
94.649	0.2	5978185	5978420	BlankScreen	ANTI	15	1	True	red	180	[1035 1515  405  675]	[405 885 405 675]
94.884	1.0	5978420	5979457	ELCue	ANTI	15	1	True	red	180	[1035 1515  405  675]	[405 885 405 675]
96.34	2.0	5979876	5982505	ShowFixation	VGS	16	1	True	lime	180	[405 885 405 675]	[1035 1515  405  675]
98.969	0.2	5982505	5982741	BlankScreen	VGS	16	1	True	lime	180	[405 885 405 675]	[1035 1515  405  675]
99.205	1.0	5982741	5983781	ELCue	VGS	16	1	True	lime	180	[405 885 405 675]	[1035 1515  405  675]
149.489	6.0	6033025	6039057	ShowFixation	VGS	17	2	False	lime	40	[ 90 570 405 675]	[1350 1830  405  675]
155.521	0.2	6039057	6039297	BlankScreen	VGS	17	2	False	lime	40	[ 90 570 405 675]	[1350 1830  405  675]
155.761	1.0	6039297	6040297	ELCue	VGS	17	2	False	lime	40	[ 90 570 405 675]	[1350 1830  405  675]
157.182	2.0	6040718	6042748	ShowFixation	VGS	18	2	False	lime	460	[1035 1515  405  675]	[405 885 405 675]
159.212	0.2	6042748	6042984	BlankScreen	VGS	18	2	False	lime	460	[1035 1515  405  675]	[405 885 405 675]
159.448	1.0	6042984	6043984	ELCue	VGS	18	2	False	lime	460	[1035 1515  405  675]	[405 885 405 675]
160.89	2.0	6044426	6046452	ShowFixation	ANTI	19	2	False	red	180	[1035 1515  405  675]	[405 885 405 675]
162.916	0.2	6046452	6046687	BlankScreen	ANTI	19	2	False	red	180	[1035 1515  405  675]	[405 885 405 675]
163.151	1.0	6046687	6047687	ELCue	ANTI	19	2	False	red	180	[1035 1515  405  675]	[405 885 405 675]
164.578	6.0	6048114	6054139	ShowFixation	VGS	20	2	False	lime	460	[1035 1515  405  675]	[405 885 405 675]
170.603	0.2	6054139	6054378	BlankScreen	VGS	20	2	False	lime	460	[1035 1515  405  675]	[405 885 405 675]
170.842	1.0	6054378	6055378	ELCue	VGS	20	2	False	lime	460	[1035 1515  405  675]	[405 885 405 675]
172.264	6.0	6055800	6061830	ShowFixation	ANTI	21	2	False	red	600	[ 90 570 405 675]	[1350 1830  405  675]
178.294	0.2	6061830	6062069	BlankScreen	ANTI	21	2	False	red	600	[ 90 570 405 675]	[1350 1830  405  675]
178.533	1.0	6062069	6063069	ELCue	ANTI	21	2	False	red	600	[ 90 570 405 675]	[1350 1830  405  675]
179.953	2.0	6063489	6065521	ShowFixation	VGS	22	2	False	lime	180	[405 885 405 675]	[1035 1515  405  675]
181.985	0.2	6065521	6065756	BlankScreen	VGS	22	2	False	lime	180	[405 885 405 675]	[1035 1515  405  675]
182.22	1.0	6065756	6066756	ELCue	VGS	22	2	False	lime	180	[405 885 405 675]	[1035 1515  405  675]
183.64	2.0	6067176	6069208	ShowFixation	VGS	23	2	False	lime	600	[1350 1830  405  675]	[ 90 570 405 675]
185.672	0.2	6069208	6069443	BlankScreen	VGS	23	2	False	lime	600	[1350 1830  405  675]	[ 90 570 405 675]
185.907	1.0	6069443	6070443	ELCue	VGS	23	2	False	lime	600	[1350 1830  405  675]	[ 90 570 405 675]
187.332	2.0	6070868	6072895	ShowFixation	VGS	24	2	False	lime	460	[1035 1515  405  675]	[405 885 405 675]
189.359	0.2	6072895	6073130	BlankScreen	VGS	24	2	False	lime	460	[1035 1515  405  675]	[405 885 405 675]
189.594	1.0	6073130	6074130	ELCue	VGS	24	2	False	lime	460	[1035 1515  405  675]	[405 885 405 675]
191.018	2.0	6074554	6076582	ShowFixation	VGS	25	2	False	lime	40	[ 90 570 405 675]	[1350 1830  405  675]
193.046	0.2	6076582	6076817	BlankScreen	VGS	25	2	False	lime	40	[ 90 570 405 675]	[1350 1830  405  675]
193.281	1.0	6076817	6077817	ELCue	VGS	25	2	False	lime	40	[ 90 570 405 675]	[1350 1830  405  675]
194.702	2.0	6078238	6080269	ShowFixation	VGS	26	2	False	lime	180	[405 885 405 675]	[1035 1515  405  675]
196.733	0.2	6080269	6080504	BlankScreen	VGS	26	2	False	lime	180	[405 885 405 675]	[1035 1515  405  675]
196.968	1.0	6080504	6081504	ELCue	VGS	26	2	False	lime	180	[405 885 405 675]	[1035 1515  405  675]
198.393	2.0	6081929	6083955	ShowFixation	VGS	27	2	False	lime	40	[ 90 570 405 675]	[1350 1830  405  675]
200.419	0.2	6083955	6084191	BlankScreen	VGS	27	2	False	lime	40	[ 90 570 405 675]	[1350 1830  405  675]
200.656	1.0	6084192	6085192	ELCue	VGS	27	2	False	lime	40	[ 90 570 405 675]	[1350 1830  405  675]
202.168	2.0	6085704	6087744	ShowFixation	ANTI	28	2	False	red	600	[ 90 570 405 675]	[1350 1830  405  675]
204.208	0.2	6087744	6087979	BlankScreen	ANTI	28	2	False	red	600	[ 90 570 405 675]	[1350 1830  405  675]
204.443	1.0	6087979	6088979	ELCue	ANTI	28	2	False	red	600	[ 90 570 405 675]	[1350 1830  405  675]
205.867	6.0	6089403	6095431	ShowFixation	VGS	29	2	False	lime	180	[405 885 405 675]	[1035 1515  405  675]
211.895	0.2	6095431	6095670	BlankScreen	VGS	29	2	False	lime	180	[405 885 405 675]	[1035 1515  405  675]
212.134	1.0	6095670	6096670	ELCue	VGS	29	2	False	lime	180	[405 885 405 675]	[1035 1515  405  675]
213.556	6.0	6097092	6103121	ShowFixation	ANTI	30	2	False	red	600	[ 90 570 405 675]	[1350 1830  405  675]
219.585	0.2	6103121	6103361	BlankScreen	ANTI	30	2	False	red	600	[ 90 570 405 675]	[1350 1830  405  675]
219.825	1.0	6103361	6104361	ELCue	ANTI	30	2	False	red	600	[ 90 570 405 675]	[1350 1830  405  675]
221.247	2.0	6104783	6106812	ShowFixation	ANTI	31	2	False	red	460	[405 885 405 675]	[1035 1515  405  675]
223.276	0.2	6106812	6107048	BlankScreen	ANTI	31	2	False	red	460	[405 885 405 675]	[1035 1515  405  675]
223.512	1.0	6107048	6108048	ELCue	ANTI	31	2	False	red	460	[405 885 405 675]	[1035 1515  405  675]
224.932	6.0	6108468	6114499	ShowFixation	ANTI	32	2	False	red	460	[405 885 405 675]	[1035 1515  405  675]
230.963	0.2	6114499	6114739	BlankScreen	ANTI	32	2	False	red	460	[405 885 405 675]	[1035 1515  405  675]
231.203	1.0	6114739	6115739	ELCue	ANTI	32	2	False	red	460	[405 885 405 675]	[1035 1515  405  675]
232.62	6.0	6116156	6122190	ShowFixation	ANTI	33	2	False	red	40	[1350 1830  405  675]	[ 90 570 405 675]
238.654	0.2	6122190	6122430	BlankScreen	ANTI	33	2	False	red	40	[1350 1830  405  675]	[ 90 570 405 675]
238.894	1.0	6122430	6123430	ELCue	ANTI	33	2	False	red	40	[1350 1830  405  675]	[ 90 570 405 675]
240.311	6.0	6123847	6129881	ShowFixation	VGS	34	2	False	lime	40	[ 90 570 405 675]	[1350 1830  405  675]
246.345	0.2	6129881	6130120	BlankScreen	VGS	34	2	False	lime	40	[ 90 570 405 675]	[1350 1830  405  675]
246.584	1.0	6130120	6131120	ELCue	VGS	34	2	False	lime	40	[ 90 570 405 675]	[1350 1830  405  675]
247.974	6.0	6131510	6137539	ShowFixation	ANTI	35	2	False	red	180	[1035 1515  405  675]	[405 885 405 675]
254.003	0.2	6137539	6137778	BlankScreen	ANTI	35	2	False	red	180	[1035 1515  405  675]	[405 885 405 675]
254.242	1.0	6137778	6138778	ELCue	ANTI	35	2	False	red	180	[1035 1515  405  675]	[405 885 405 675]
255.662	6.0	6139198	6145230	ShowFixation	ANTI	36	2	False	red	460	[405 885 405 675]	[1035 1515  405  675]
261.694	0.2	6145230	6145469	BlankScreen	ANTI	36	2	False	red	460	[405 885 405 675]	[1035 1515  405  675]
261.933	1.0	6145469	6146469	ELCue	ANTI	36	2	False	red	460	[405 885 405 675]	[1035 1515  405  675]
263.355	6.0	6146891	6152921	ShowFixation	VGS	37	2	False	lime	600	[1350 1830  405  675]	[ 90 570 405 675]
269.385	0.2	6152921	6153160	BlankScreen	VGS	37	2	False	lime	600	[1350 1830  405  675]	[ 90 570 405 675]
269.624	1.0	6153160	6154160	ELCue	VGS	37	2	False	lime	600	[1350 1830  405  675]	[ 90 570 405 675]
271.045	2.0	6154581	6156612	ShowFixation	ANTI	38	2	False	red	600	[ 90 570 405 675]	[1350 1830  405  675]
273.076	0.2	6156612	6156847	BlankScreen	ANTI	38	2	False	red	600	[ 90 570 405 675]	[1350 1830  405  675]
273.311	1.0	6156847	6157847	ELCue	ANTI	38	2	False	red	600	[ 90 570 405 675]	[1350 1830  405  675]
274.735	6.0	6158271	6164298	ShowFixation	VGS	39	2	False	lime	180	[405 885 405 675]	[1035 1515  405  675]
280.762	0.2	6164298	6164538	BlankScreen	VGS	39	2	False	lime	180	[405 885 405 675]	[1035 1515  405  675]
281.002	1.0	6164538	6165538	ELCue	VGS	39	2	False	lime	180	[405 885 405 675]	[1035 1515  405  675]
282.425	6.0	6165961	6171989	ShowFixation	ANTI	40	2	False	red	40	[1350 1830  405  675]	[ 90 570 405 675]
288.453	0.2	6171989	6172229	BlankScreen	ANTI	40	2	False	red	40	[1350 1830  405  675]	[ 90 570 405 675]
288.693	1.0	6172229	6173229	ELCue	ANTI	40	2	False	red	40	[1350 1830  405  675]	[ 90 570 405 675]
290.116	2.0	6173652	6175680	ShowFixation	ANTI	41	2	False	red	40	[1350 1830  405  675]	[ 90 570 405 675]
292.144	0.2	6175680	6175916	BlankScreen	ANTI	41	2	False	red	40	[1350 1830  405  675]	[ 90 570 405 675]
292.38	1.0	6175916	6176916	ELCue	ANTI	41	2	False	red	40	[1350 1830  405  675]	[ 90 570 405 675]
293.799	2.0	6177335	6179367	ShowFixation	ANTI	42	2	False	red	40	[1350 1830  405  675]	[ 90 570 405 675]
295.831	0.2	6179367	6179603	BlankScreen	ANTI	42	2	False	red	40	[1350 1830  405  675]	[ 90 570 405 675]
296.067	1.0	6179603	6180603	ELCue	ANTI	42	2	False	red	40	[1350 1830  405  675]	[ 90 570 405 675]
297.488	2.0	6181024	6183054	ShowFixation	ANTI	43	2	False	red	180	[1035 1515  405  675]	[405 885 405 675]
299.518	0.2	6183054	6183290	BlankScreen	ANTI	43	2	False	red	180	[1035 1515  405  675]	[405 885 405 675]
299.754	1.0	6183290	6184290	ELCue	ANTI	43	2	False	red	180	[1035 1515  405  675]	[405 885 405 675]
301.176	2.0	6184712	6186741	ShowFixation	ANTI	44	2	False	red	460	[405 885 405 675]	[1035 1515  405  675]
303.205	0.2	6186741	6186977	BlankScreen	ANTI	44	2	False	red	460	[405 885 405 675]	[1035 1515  405  675]
303.441	1.0	6186977	6187977	ELCue	ANTI	44	2	False	red	460	[405 885 405 675]	[1035 1515  405  675]
304.862	6.0	6188398	6194428	ShowFixation	VGS	45	2	False	lime	460	[1035 1515  405  675]	[405 885 405 675]
310.892	0.2	6194428	6194668	BlankScreen	VGS	45	2	False	lime	460	[1035 1515  405  675]	[405 885 405 675]
311.132	1.0	6194668	6195668	ELCue	VGS	45	2	False	lime	460	[1035 1515  405  675]	[405 885 405 675]
312.523	6.0	6196059	6202086	ShowFixation	ANTI	46	2	False	red	180	[1035 1515  405  675]	[405 885 405 675]
318.55	0.2	6202086	6202325	BlankScreen	ANTI	46	2	False	red	180	[1035 1515  405  675]	[405 885 405 675]
318.789	1.0	6202325	6203325	ELCue	ANTI	46	2	False	red	180	[1035 1515  405  675]	[405 885 405 675]
320.212	2.0	6203748	6205777	ShowFixation	VGS	47	2	False	lime	600	[1350 1830  405  675]	[ 90 570 405 675]
322.241	0.2	6205777	6206012	BlankScreen	VGS	47	2	False	lime	600	[1350 1830  405  675]	[ 90 570 405 675]
322.476	1.0	6206012	6207012	ELCue	VGS	47	2	False	lime	600	[1350 1830  405  675]	[ 90 570 405 675]
323.899	6.0	6207435	6213464	ShowFixation	VGS	48	2	False	lime	600	[1350 1830  405  675]	[ 90 570 405 675]
329.928	0.2	6213464	6213703	BlankScreen	VGS	48	2	False	lime	600	[1350 1830  405  675]	[ 90 570 405 675]
330.167	1.0	6213703	6214703	ELCue	VGS	48	2	False	lime	600	[1350 1830  405  675]	[ 90 570 405 675]
419.987	6.0	6303523	6309559	ShowFixation	ANTI	49	3	False	red	460	[405 885 405 675]	[1035 1515  405  675]
426.023	0.2	6309559	6309799	BlankScreen	ANTI	49	3	False	red	460	[405 885 405 675]	[1035 1515  405  675]
426.263	1.0	6309799	6310799	ELCue	ANTI	49	3	False	red	460	[405 885 405 675]	[1035 1515  405  675]
427.686	6.0	6311222	6317250	ShowFixation	VGS	50	3	False	lime	460	[1035 1515  405  675]	[405 885 405 675]
433.714	0.2	6317250	6317490	BlankScreen	VGS	50	3	False	lime	460	[1035 1515  405  675]	[405 885 405 675]
433.954	1.0	6317490	6318490	ELCue	VGS	50	3	False	lime	460	[1035 1515  405  675]	[405 885 405 675]
435.356	2.0	6318892	6320925	ShowFixation	VGS	51	3	False	lime	460	[1035 1515  405  675]	[405 885 405 675]
437.389	0.2	6320925	6321160	BlankScreen	VGS	51	3	False	lime	460	[1035 1515  405  675]	[405 885 405 675]
437.624	1.0	6321160	6322160	ELCue	VGS	51	3	False	lime	460	[1035 1515  405  675]	[405 885 405 675]
439.046	6.0	6322582	6328612	ShowFixation	ANTI	52	3	False	red	460	[405 885 405 675]	[1035 1515  405  675]
445.076	0.2	6328612	6328851	BlankScreen	ANTI	52	3	False	red	460	[405 885 405 675]	[1035 1515  405  675]
445.315	1.0	6328851	6329851	ELCue	ANTI	52	3	False	red	460	[405 885 405 675]	[1035 1515  405  675]
446.738	2.0	6330274	6332303	ShowFixation	VGS	53	3	False	lime	180	[405 885 405 675]	[1035 1515  405  675]
448.767	0.2	6332303	6332538	BlankScreen	VGS	53	3	False	lime	180	[405 885 405 675]	[1035 1515  405  675]
449.002	1.0	6332538	6333538	ELCue	VGS	53	3	False	lime	180	[405 885 405 675]	[1035 1515  405  675]
450.424	6.0	6333960	6339989	ShowFixation	ANTI	54	3	False	red	40	[1350 1830  405  675]	[ 90 570 405 675]
456.453	0.2	6339989	6340229	BlankScreen	ANTI	54	3	False	red	40	[1350 1830  405  675]	[ 90 570 405 675]
456.693	1.0	6340229	6341229	ELCue	ANTI	54	3	False	red	40	[1350 1830  405  675]	[ 90 570 405 675]
458.114	2.0	6341650	6343680	ShowFixation	ANTI	55	3	False	red	600	[ 90 570 405 675]	[1350 1830  405  675]
460.144	0.2	6343680	6343916	BlankScreen	ANTI	55	3	False	red	600	[ 90 570 405 675]	[1350 1830  405  675]
460.38	1.0	6343916	6344916	ELCue	ANTI	55	3	False	red	600	[ 90 570 405 675]	[1350 1830  405  675]
461.803	6.0	6345339	6351367	ShowFixation	VGS	56	3	False	lime	180	[405 885 405 675]	[1035 1515  405  675]
467.832	0.2	6351368	6351607	BlankScreen	VGS	56	3	False	lime	180	[405 885 405 675]	[1035 1515  405  675]
468.071	1.0	6351607	6352607	ELCue	VGS	56	3	False	lime	180	[405 885 405 675]	[1035 1515  405  675]
469.486	6.0	6353022	6359059	ShowFixation	VGS	57	3	False	lime	180	[405 885 405 675]	[1035 1515  405  675]
475.523	0.2	6359059	6359299	BlankScreen	VGS	57	3	False	lime	180	[405 885 405 675]	[1035 1515  405  675]
475.763	1.0	6359299	6360299	ELCue	VGS	57	3	False	lime	180	[405 885 405 675]	[1035 1515  405  675]
477.186	2.0	6360722	6362750	ShowFixation	VGS	58	3	False	lime	600	[1350 1830  405  675]	[ 90 570 405 675]
479.214	0.2	6362750	6362986	BlankScreen	VGS	58	3	False	lime	600	[1350 1830  405  675]	[ 90 570 405 675]
479.45	1.0	6362986	6363986	ELCue	VGS	58	3	False	lime	600	[1350 1830  405  675]	[ 90 570 405 675]
480.871	2.0	6364407	6366437	ShowFixation	ANTI	59	3	False	red	600	[ 90 570 405 675]	[1350 1830  405  675]
482.901	0.2	6366437	6366673	BlankScreen	ANTI	59	3	False	red	600	[ 90 570 405 675]	[1350 1830  405  675]
483.137	1.0	6366673	6367673	ELCue	ANTI	59	3	False	red	600	[ 90 570 405 675]	[1350 1830  405  675]
484.56	2.0	6368096	6370124	ShowFixation	VGS	60	3	False	lime	180	[405 885 405 675]	[1035 1515  405  675]
486.588	0.2	6370124	6370360	BlankScreen	VGS	60	3	False	lime	180	[405 885 405 675]	[1035 1515  405  675]
486.824	1.0	6370360	6371360	ELCue	VGS	60	3	False	lime	180	[405 885 405 675]	[1035 1515  405  675]
488.247	2.0	6371783	6373811	ShowFixation	ANTI	61	3	False	red	180	[1035 1515  405  675]	[405 885 405 675]
490.275	0.2	6373811	6374046	BlankScreen	ANTI	61	3	False	red	180	[1035 1515  405  675]	[405 885 405 675]
490.51	1.0	6374046	6375046	ELCue	ANTI	61	3	False	red	180	[1035 1515  405  675]	[405 885 405 675]
491.934	6.0	6375470	6381498	ShowFixation	ANTI	62	3	False	red	180	[1035 1515  405  675]	[405 885 405 675]
497.962	0.2	6381498	6381737	BlankScreen	ANTI	62	3	False	red	180	[1035 1515  405  675]	[405 885 405 675]
498.201	1.0	6381737	6382737	ELCue	ANTI	62	3	False	red	180	[1035 1515  405  675]	[405 885 405 675]
499.624	2.0	6383160	6385189	ShowFixation	ANTI	63	3	False	red	460	[405 885 405 675]	[1035 1515  405  675]
501.653	0.2	6385189	6385424	BlankScreen	ANTI	63	3	False	red	460	[405 885 405 675]	[1035 1515  405  675]
501.888	1.0	6385424	6386424	ELCue	ANTI	63	3	False	red	460	[405 885 405 675]	[1035 1515  405  675]
503.311	2.0	6386847	6388876	ShowFixation	ANTI	64	3	False	red	180	[1035 1515  405  675]	[405 885 405 675]
505.34	0.2	6388876	6389111	BlankScreen	ANTI	64	3	False	red	180	[1035 1515  405  675]	[405 885 405 675]
505.575	1.0	6389111	6390111	ELCue	ANTI	64	3	False	red	180	[1035 1515  405  675]	[405 885 405 675]
506.997	6.0	6390533	6396563	ShowFixation	VGS	65	3	False	lime	40	[ 90 570 405 675]	[1350 1830  405  675]
513.027	0.2	6396563	6396802	BlankScreen	VGS	65	3	False	lime	40	[ 90 570 405 675]	[1350 1830  405  675]
513.266	1.0	6396802	6397802	ELCue	VGS	65	3	False	lime	40	[ 90 570 405 675]	[1350 1830  405  675]
514.688	6.0	6398224	6404254	ShowFixation	ANTI	66	3	False	red	600	[ 90 570 405 675]	[1350 1830  405  675]
520.718	0.2	6404254	6404493	BlankScreen	ANTI	66	3	False	red	600	[ 90 570 405 675]	[1350 1830  405  675]
520.957	1.0	6404493	6405493	ELCue	ANTI	66	3	False	red	600	[ 90 570 405 675]	[1350 1830  405  675]
522.38	2.0	6405916	6407945	ShowFixation	ANTI	67	3	False	red	40	[1350 1830  405  675]	[ 90 570 405 675]
524.409	0.2	6407945	6408180	BlankScreen	ANTI	67	3	False	red	40	[1350 1830  405  675]	[ 90 570 405 675]
524.644	1.0	6408180	6409180	ELCue	ANTI	67	3	False	red	40	[1350 1830  405  675]	[ 90 570 405 675]
526.028	2.0	6409564	6411598	ShowFixation	ANTI	68	3	False	red	40	[1350 1830  405  675]	[ 90 570 405 675]
528.062	0.2	6411598	6411834	BlankScreen	ANTI	68	3	False	red	40	[1350 1830  405  675]	[ 90 570 405 675]
528.298	1.0	6411834	6412834	ELCue	ANTI	68	3	False	red	40	[1350 1830  405  675]	[ 90 570 405 675]
529.719	6.0	6413255	6419285	ShowFixation	ANTI	69	3	False	red	600	[ 90 570 405 675]	[1350 1830  405  675]
535.749	0.2	6419285	6419525	BlankScreen	ANTI	69	3	False	red	600	[ 90 570 405 675]	[1350 1830  405  675]
535.989	1.0	6419525	6420525	ELCue	ANTI	69	3	False	red	600	[ 90 570 405 675]	[1350 1830  405  675]
537.411	6.0	6420947	6426976	ShowFixation	ANTI	70	3	False	red	180	[1035 1515  405  675]	[405 885 405 675]
543.44	0.2	6426976	6427216	BlankScreen	ANTI	70	3	False	red	180	[1035 1515  405  675]	[405 885 405 675]
543.68	1.0	6427216	6428216	ELCue	ANTI	70	3	False	red	180	[1035 1515  405  675]	[405 885 405 675]
545.104	2.0	6428640	6430667	ShowFixation	VGS	71	3	False	lime	600	[1350 1830  405  675]	[ 90 570 405 675]
547.131	0.2	6430667	6430903	BlankScreen	VGS	71	3	False	lime	600	[1350 1830  405  675]	[ 90 570 405 675]
547.367	1.0	6430903	6431903	ELCue	VGS	71	3	False	lime	600	[1350 1830  405  675]	[ 90 570 405 675]
548.791	2.0	6432327	6434354	ShowFixation	ANTI	72	3	False	red	460	[405 885 405 675]	[1035 1515  405  675]
550.818	0.2	6434354	6434590	BlankScreen	ANTI	72	3	False	red	460	[405 885 405 675]	[1035 1515  405  675]
551.054	1.0	6434590	6435590	ELCue	ANTI	72	3	False	red	460	[405 885 405 675]	[1035 1515  405  675]
552.476	6.0	6436012	6442041	ShowFixation	VGS	73	3	False	lime	40	[ 90 570 405 675]	[1350 1830  405  675]
558.505	0.2	6442041	6442280	BlankScreen	VGS	73	3	False	lime	40	[ 90 570 405 675]	[1350 1830  405  675]
558.744	1.0	6442280	6443280	ELCue	VGS	73	3	False	lime	40	[ 90 570 405 675]	[1350 1830  405  675]
560.169	2.0	6443705	6445732	ShowFixation	VGS	74	3	False	lime	460	[1035 1515  405  675]	[405 885 405 675]
562.196	0.2	6445732	6445967	BlankScreen	VGS	74	3	False	lime	460	[1035 1515  405  675]	[405 885 405 675]
562.431	1.0	6445967	6446967	ELCue	VGS	74	3	False	lime	460	[1035 1515  405  675]	[405 885 405 675]
563.856	6.0	6447392	6453419	ShowFixation	VGS	75	3	False	lime	460	[1035 1515  405  675]	[405 885 405 675]
569.883	0.2	6453419	6453658	BlankScreen	VGS	75	3	False	lime	460	[1035 1515  405  675]	[405 885 405 675]
570.122	1.0	6453658	6454658	ELCue	VGS	75	3	False	lime	460	[1035 1515  405  675]	[405 885 405 675]
571.542	6.0	6455078	6461110	ShowFixation	VGS	76	3	False	lime	600	[1350 1830  405  675]	[ 90 570 405 675]
577.574	0.2	6461110	6461349	BlankScreen	VGS	76	3	False	lime	600	[1350 1830  405  675]	[ 90 570 405 675]
577.813	1.0	6461349	6462349	ELCue	VGS	76	3	False	lime	600	[1350 1830  405  675]	[ 90 570 405 675]
579.232	6.0	6462768	6468801	ShowFixation	VGS	77	3	False	lime	600	[1350 1830  405  675]	[ 90 570 405 675]
585.265	0.2	6468801	6469040	BlankScreen	VGS	77	3	False	lime	600	[1350 1830  405  675]	[ 90 570 405 675]
585.504	1.0	6469040	6470040	ELCue	VGS	77	3	False	lime	600	[1350 1830  405  675]	[ 90 570 405 675]
586.924	2.0	6470460	6472492	ShowFixation	VGS	78	3	False	lime	40	[ 90 570 405 675]	[1350 1830  405  675]
588.956	0.2	6472492	6472727	BlankScreen	VGS	78	3	False	lime	40	[ 90 570 405 675]	[1350 1830  405  675]
589.191	1.0	6472727	6473727	ELCue	VGS	78	3	False	lime	40	[ 90 570 405 675]	[1350 1830  405  675]
590.617	6.0	6474153	6480179	ShowFixation	ANTI	79	3	False	red	40	[1350 1830  405  675]	[ 90 570 405 675]
596.644	0.2	6480180	6480418	BlankScreen	ANTI	79	3	False	red	40	[1350 1830  405  675]	[ 90 570 405 675]
596.882	1.0	6480418	6481418	ELCue	ANTI	79	3	False	red	40	[1350 1830  405  675]	[ 90 570 405 675]
598.309	2.0	6481845	6483870	ShowFixation	VGS	80	3	False	lime	40	[ 90 570 405 675]	[1350 1830  405  675]
600.335	0.2	6483871	6484105	BlankScreen	VGS	80	3	False	lime	40	[ 90 570 405 675]	[1350 1830  405  675]
600.569	1.0	6484105	6485105	ELCue	VGS	80	3	False	lime	40	[ 90 570 405 675]	[1350 1830  405  675]
641.759	6.0	6525295	6531330	ShowFixation	VGS	81	4	False	lime	600	[1350 1830  405  675]	[ 90 570 405 675]
647.794	0.2	6531330	6531570	BlankScreen	VGS	81	4	False	lime	600	[1350 1830  405  675]	[ 90 570 405 675]
648.034	1.0	6531570	6532570	ELCue	VGS	81	4	False	lime	600	[1350 1830  405  675]	[ 90 570 405 675]
649.454	2.0	6532990	6535021	ShowFixation	VGS	82	4	False	lime	40	[ 90 570 405 675]	[1350 1830  405  675]
651.485	0.2	6535021	6535257	BlankScreen	VGS	82	4	False	lime	40	[ 90 570 405 675]	[1350 1830  405  675]
651.721	1.0	6535257	6536257	ELCue	VGS	82	4	False	lime	40	[ 90 570 405 675]	[1350 1830  405  675]
653.139	2.0	6536675	6538708	ShowFixation	VGS	83	4	False	lime	180	[405 885 405 675]	[1035 1515  405  675]
655.172	0.2	6538708	6538944	BlankScreen	VGS	83	4	False	lime	180	[405 885 405 675]	[1035 1515  405  675]
655.408	1.0	6538944	6539944	ELCue	VGS	83	4	False	lime	180	[405 885 405 675]	[1035 1515  405  675]
656.825	2.0	6540361	6542395	ShowFixation	ANTI	84	4	False	red	600	[ 90 570 405 675]	[1350 1830  405  675]
658.859	0.2	6542395	6542631	BlankScreen	ANTI	84	4	False	red	600	[ 90 570 405 675]	[1350 1830  405  675]
659.095	1.0	6542631	6543631	ELCue	ANTI	84	4	False	red	600	[ 90 570 405 675]	[1350 1830  405  675]
660.518	6.0	6544054	6550082	ShowFixation	ANTI	85	4	False	red	460	[405 885 405 675]	[1035 1515  405  675]
666.546	0.2	6550082	6550321	BlankScreen	ANTI	85	4	False	red	460	[405 885 405 675]	[1035 1515  405  675]
666.785	1.0	6550321	6551321	ELCue	ANTI	85	4	False	red	460	[405 885 405 675]	[1035 1515  405  675]
668.208	6.0	6551744	6557773	ShowFixation	ANTI	86	4	False	red	40	[1350 1830  405  675]	[ 90 570 405 675]
674.237	0.2	6557773	6558012	BlankScreen	ANTI	86	4	False	red	40	[1350 1830  405  675]	[ 90 570 405 675]
674.476	1.0	6558012	6559012	ELCue	ANTI	86	4	False	red	40	[1350 1830  405  675]	[ 90 570 405 675]
675.9	6.0	6559436	6565464	ShowFixation	VGS	87	4	False	lime	40	[ 90 570 405 675]	[1350 1830  405  675]
681.928	0.2	6565464	6565703	BlankScreen	VGS	87	4	False	lime	40	[ 90 570 405 675]	[1350 1830  405  675]
682.167	1.0	6565703	6566703	ELCue	VGS	87	4	False	lime	40	[ 90 570 405 675]	[1350 1830  405  675]
683.587	6.0	6567123	6573155	ShowFixation	VGS	88	4	False	lime	40	[ 90 570 405 675]	[1350 1830  405  675]
689.619	0.2	6573155	6573394	BlankScreen	VGS	88	4	False	lime	40	[ 90 570 405 675]	[1350 1830  405  675]
689.858	1.0	6573394	6574394	ELCue	VGS	88	4	False	lime	40	[ 90 570 405 675]	[1350 1830  405  675]
691.279	2.0	6574815	6576846	ShowFixation	ANTI	89	4	False	red	40	[1350 1830  405  675]	[ 90 570 405 675]
693.31	0.2	6576846	6577081	BlankScreen	ANTI	89	4	False	red	40	[1350 1830  405  675]	[ 90 570 405 675]
693.545	1.0	6577081	6578081	ELCue	ANTI	89	4	False	red	40	[1350 1830  405  675]	[ 90 570 405 675]
695.097	2.0	6578633	6580666	ShowFixation	VGS	90	4	False	lime	180	[405 885 405 675]	[1035 1515  405  675]
697.13	0.2	6580666	6580902	BlankScreen	VGS	90	4	False	lime	180	[405 885 405 675]	[1035 1515  405  675]
697.366	1.0	6580902	6581902	ELCue	VGS	90	4	False	lime	180	[405 885 405 675]	[1035 1515  405  675]
698.785	6.0	6582321	6588353	ShowFixation	ANTI	91	4	False	red	600	[ 90 570 405 675]	[1350 1830  405  675]
704.817	0.2	6588353	6588593	BlankScreen	ANTI	91	4	False	red	600	[ 90 570 405 675]	[1350 1830  405  675]
705.057	1.0	6588593	6589593	ELCue	ANTI	91	4	False	red	600	[ 90 570 405 675]	[1350 1830  405  675]
706.48	6.0	6590016	6596044	ShowFixation	VGS	92	4	False	lime	180	[405 885 405 675]	[1035 1515  405  675]
712.508	0.2	6596044	6596283	BlankScreen	VGS	92	4	False	lime	180	[405 885 405 675]	[1035 1515  405  675]
712.747	1.0	6596283	6597283	ELCue	VGS	92	4	False	lime	180	[405 885 405 675]	[1035 1515  405  675]
714.17	6.0	6597706	6603735	ShowFixation	VGS	93	4	False	lime	180	[405 885 405 675]	[1035 1515  405  675]
720.199	0.2	6603735	6603974	BlankScreen	VGS	93	4	False	lime	180	[405 885 405 675]	[1035 1515  405  675]
720.438	1.0	6603974	6604974	ELCue	VGS	93	4	False	lime	180	[405 885 405 675]	[1035 1515  405  675]
721.86	6.0	6605396	6611426	ShowFixation	ANTI	94	4	False	red	600	[ 90 570 405 675]	[1350 1830  405  675]
727.89	0.2	6611426	6611665	BlankScreen	ANTI	94	4	False	red	600	[ 90 570 405 675]	[1350 1830  405  675]
728.129	1.0	6611665	6612665	ELCue	ANTI	94	4	False	red	600	[ 90 570 405 675]	[1350 1830  405  675]
729.55	6.0	6613086	6619117	ShowFixation	ANTI	95	4	False	red	180	[1035 1515  405  675]	[405 885 405 675]
735.581	0.2	6619117	6619356	BlankScreen	ANTI	95	4	False	red	180	[1035 1515  405  675]	[405 885 405 675]
735.821	1.0	6619357	6620357	ELCue	ANTI	95	4	False	red	180	[1035 1515  405  675]	[405 885 405 675]
737.237	6.0	6620773	6626808	ShowFixation	VGS	96	4	False	lime	460	[1035 1515  405  675]	[405 885 405 675]
743.273	0.2	6626809	6627047	BlankScreen	VGS	96	4	False	lime	460	[1035 1515  405  675]	[405 885 405 675]
743.512	1.0	6627048	6628048	ELCue	VGS	96	4	False	lime	460	[1035 1515  405  675]	[405 885 405 675]
744.936	6.0	6628472	6634500	ShowFixation	ANTI	97	4	False	red	40	[1350 1830  405  675]	[ 90 570 405 675]
750.964	0.2	6634500	6634739	BlankScreen	ANTI	97	4	False	red	40	[1350 1830  405  675]	[ 90 570 405 675]
751.203	1.0	6634739	6635739	ELCue	ANTI	97	4	False	red	40	[1350 1830  405  675]	[ 90 570 405 675]
752.626	2.0	6636162	6638191	ShowFixation	ANTI	98	4	False	red	180	[1035 1515  405  675]	[405 885 405 675]
754.655	0.2	6638191	6638426	BlankScreen	ANTI	98	4	False	red	180	[1035 1515  405  675]	[405 885 405 675]
754.89	1.0	6638426	6639426	ELCue	ANTI	98	4	False	red	180	[1035 1515  405  675]	[405 885 405 675]
756.314	6.0	6639850	6645878	ShowFixation	ANTI	99	4	False	red	180	[1035 1515  405  675]	[405 885 405 675]
762.342	0.2	6645878	6646117	BlankScreen	ANTI	99	4	False	red	180	[1035 1515  405  675]	[405 885 405 675]
762.581	1.0	6646117	6647117	ELCue	ANTI	99	4	False	red	180	[1035 1515  405  675]	[405 885 405 675]
763.999	2.0	6647535	6649569	ShowFixation	ANTI	100	4	False	red	460	[405 885 405 675]	[1035 1515  405  675]
766.033	0.2	6649569	6649804	BlankScreen	ANTI	100	4	False	red	460	[405 885 405 675]	[1035 1515  405  675]
766.268	1.0	6649804	6650804	ELCue	ANTI	100	4	False	red	460	[405 885 405 675]	[1035 1515  405  675]
767.691	2.0	6651227	6653256	ShowFixation	VGS	101	4	False	lime	600	[1350 1830  405  675]	[ 90 570 405 675]
769.72	0.2	6653256	6653491	BlankScreen	VGS	101	4	False	lime	600	[1350 1830  405  675]	[ 90 570 405 675]
769.955	1.0	6653491	6654491	ELCue	VGS	101	4	False	lime	600	[1350 1830  405  675]	[ 90 570 405 675]
771.378	2.0	6654914	6656943	ShowFixation	ANTI	102	4	False	red	40	[1350 1830  405  675]	[ 90 570 405 675]
773.407	0.2	6656943	6657178	BlankScreen	ANTI	102	4	False	red	40	[1350 1830  405  675]	[ 90 570 405 675]
773.642	1.0	6657178	6658178	ELCue	ANTI	102	4	False	red	40	[1350 1830  405  675]	[ 90 570 405 675]
775.066	2.0	6658602	6660630	ShowFixation	ANTI	103	4	False	red	600	[ 90 570 405 675]	[1350 1830  405  675]
777.094	0.2	6660630	6660865	BlankScreen	ANTI	103	4	False	red	600	[ 90 570 405 675]	[1350 1830  405  675]
777.329	1.0	6660865	6661865	ELCue	ANTI	103	4	False	red	600	[ 90 570 405 675]	[1350 1830  405  675]
778.752	6.0	6662288	6668316	ShowFixation	VGS	104	4	False	lime	600	[1350 1830  405  675]	[ 90 570 405 675]
784.78	0.2	6668316	6668556	BlankScreen	VGS	104	4	False	lime	600	[1350 1830  405  675]	[ 90 570 405 675]
785.02	1.0	6668556	6669556	ELCue	VGS	104	4	False	lime	600	[1350 1830  405  675]	[ 90 570 405 675]
786.44	2.0	6669976	6672007	ShowFixation	VGS	105	4	False	lime	460	[1035 1515  405  675]	[405 885 405 675]
788.471	0.2	6672007	6672243	BlankScreen	VGS	105	4	False	lime	460	[1035 1515  405  675]	[405 885 405 675]
788.707	1.0	6672243	6673243	ELCue	VGS	105	4	False	lime	460	[1035 1515  405  675]	[405 885 405 675]
790.125	2.0	6673661	6675694	ShowFixation	VGS	106	4	False	lime	460	[1035 1515  405  675]	[405 885 405 675]
792.158	0.2	6675694	6675930	BlankScreen	VGS	106	4	False	lime	460	[1035 1515  405  675]	[405 885 405 675]
792.394	1.0	6675930	6676930	ELCue	VGS	106	4	False	lime	460	[1035 1515  405  675]	[405 885 405 675]
793.816	6.0	6677352	6683381	ShowFixation	ANTI	107	4	False	red	460	[405 885 405 675]	[1035 1515  405  675]
799.845	0.2	6683381	6683621	BlankScreen	ANTI	107	4	False	red	460	[405 885 405 675]	[1035 1515  405  675]
800.085	1.0	6683621	6684621	ELCue	ANTI	107	4	False	red	460	[405 885 405 675]	[1035 1515  405  675]
801.508	2.0	6685044	6687072	ShowFixation	ANTI	108	4	False	red	180	[1035 1515  405  675]	[405 885 405 675]
803.536	0.2	6687072	6687308	BlankScreen	ANTI	108	4	False	red	180	[1035 1515  405  675]	[405 885 405 675]
803.772	1.0	6687308	6688308	ELCue	ANTI	108	4	False	red	180	[1035 1515  405  675]	[405 885 405 675]
805.188	2.0	6688724	6690759	ShowFixation	ANTI	109	4	False	red	460	[405 885 405 675]	[1035 1515  405  675]
807.223	0.2	6690759	6690995	BlankScreen	ANTI	109	4	False	red	460	[405 885 405 675]	[1035 1515  405  675]
807.459	1.0	6690995	6691995	ELCue	ANTI	109	4	False	red	460	[405 885 405 675]	[1035 1515  405  675]
808.876	2.0	6692412	6694446	ShowFixation	VGS	110	4	False	lime	40	[ 90 570 405 675]	[1350 1830  405  675]
810.91	0.2	6694446	6694682	BlankScreen	VGS	110	4	False	lime	40	[ 90 570 405 675]	[1350 1830  405  675]
811.146	1.0	6694682	6695682	ELCue	VGS	110	4	False	lime	40	[ 90 570 405 675]	[1350 1830  405  675]
812.562	6.0	6696098	6702133	ShowFixation	VGS	111	4	False	lime	460	[1035 1515  405  675]	[405 885 405 675]
818.597	0.2	6702133	6702372	BlankScreen	VGS	111	4	False	lime	460	[1035 1515  405  675]	[405 885 405 675]
818.836	1.0	6702372	6703372	ELCue	VGS	111	4	False	lime	460	[1035 1515  405  675]	[405 885 405 675]
820.259	2.0	6703795	6705824	ShowFixation	VGS	112	4	False	lime	600	[1350 1830  405  675]	[ 90 570 405 675]
822.288	0.2	6705824	6706059	BlankScreen	VGS	112	4	False	lime	600	[1350 1830  405  675]	[ 90 570 405 675]
822.523	1.0	6706059	6707059	ELCue	VGS	112	4	False	lime	600	[1350 1830  405  675]	[ 90 570 405 675]
