onset	duration	startTime	stopTime	eventIdentifier	trial_type	trial_number	block_number	is_practice	fixation_color	cue_side	aoi_correct	aoi_incorrect
0.151	2.0	465387	467413	ShowFixation	VGS	1	1	True	lime	40	[ 90 570 405 675]	[1350 1830  405  675]
2.177	0.2	467413	467648	BlankScreen	VGS	1	1	True	lime	40	[ 90 570 405 675]	[1350 1830  405  675]
2.412	1.0	467648	468689	ELCue	VGS	1	1	True	lime	40	[ 90 570 405 675]	[1350 1830  405  675]
3.868	2.0	469104	471734	ShowFixation	ANTI	2	1	True	red	460	[405 885 405 675]	[1035 1515  405  675]
6.499	0.2	471735	471969	BlankScreen	ANTI	2	1	True	red	460	[405 885 405 675]	[1035 1515  405  675]
6.733	1.0	471969	473010	ELCue	ANTI	2	1	True	red	460	[405 885 405 675]	[1035 1515  405  675]
8.176	6.0	473412	480055	ShowFixation	ANTI	3	1	True	red	460	[405 885 405 675]	[1035 1515  405  675]
14.82	0.2	480056	480295	BlankScreen	ANTI	3	1	True	red	460	[405 885 405 675]	[1035 1515  405  675]
15.059	1.0	480295	481335	ELCue	ANTI	3	1	True	red	460	[405 885 405 675]	[1035 1515  405  675]
16.517	6.0	481753	488380	ShowFixation	VGS	4	1	True	lime	40	[ 90 570 405 675]	[1350 1830  405  675]
23.144	0.2	488380	488620	BlankScreen	VGS	4	1	True	lime	40	[ 90 570 405 675]	[1350 1830  405  675]
23.384	1.0	488620	489659	ELCue	VGS	4	1	True	lime	40	[ 90 570 405 675]	[1350 1830  405  675]
24.843	2.0	490079	492689	ShowFixation	VGS	5	1	True	lime	180	[405 885 405 675]	[1035 1515  405  675]
27.453	0.2	492689	492907	BlankScreen	VGS	5	1	True	lime	180	[405 885 405 675]	[1035 1515  405  675]
27.671	1.0	492907	493930	ELCue	VGS	5	1	True	lime	180	[405 885 405 675]	[1035 1515  405  675]
29.113	2.0	494349	496976	ShowFixation	VGS	6	1	True	lime	460	[1035 1515  405  675]	[405 885 405 675]
31.74	0.2	496976	497212	BlankScreen	VGS	6	1	True	lime	460	[1035 1515  405  675]	[405 885 405 675]
31.976	1.0	497212	498252	ELCue	VGS	6	1	True	lime	460	[1035 1515  405  675]	[405 885 405 675]
33.43	6.0	498666	505297	ShowFixation	VGS	7	1	True	lime	460	[1035 1515  405  675]	[405 885 405 675]
40.061	0.2	505297	505536	BlankScreen	VGS	7	1	True	lime	460	[1035 1515  405  675]	[405 885 405 675]
40.3	1.0	505536	506577	ELCue	VGS	7	1	True	lime	460	[1035 1515  405  675]	[405 885 405 675]
41.757	2.0	506993	509622	ShowFixation	ANTI	8	1	True	red	40	[1350 1830  405  675]	[ 90 570 405 675]
44.386	0.2	509622	509857	BlankScreen	ANTI	8	1	True	red	40	[1350 1830  405  675]	[ 90 570 405 675]
44.621	1.0	509857	510898	ELCue	ANTI	8	1	True	red	40	[1350 1830  405  675]	[ 90 570 405 675]
46.081	2.0	511317	513925	ShowFixation	VGS	9	1	True	lime	600	[1350 1830  405  675]	[ 90 570 405 675]
48.69	0.2	513926	514144	BlankScreen	VGS	9	1	True	lime	600	[1350 1830  405  675]	[ 90 570 405 675]
48.909	1.0	514145	515168	ELCue	VGS	9	1	True	lime	600	[1350 1830  405  675]	[ 90 570 405 675]
50.347	6.0	515583	522214	ShowFixation	ANTI	10	1	True	red	40	[1350 1830  405  675]	[ 90 570 405 675]
56.978	0.2	522214	522453	BlankScreen	ANTI	10	1	True	red	40	[1350 1830  405  675]	[ 90 570 405 675]
57.217	1.0	522453	523493	ELCue	ANTI	10	1	True	red	40	[1350 1830  405  675]	[ 90 570 405 675]
58.675	6.0	523911	530522	ShowFixation	ANTI	11	1	True	red	600	[ 90 570 405 675]	[1350 1830  405  675]
65.286	0.2	530522	530761	BlankScreen	ANTI	11	1	True	red	600	[ 90 570 405 675]	[1350 1830  405  675]
65.525	1.0	530761	531801	ELCue	ANTI	11	1	True	red	600	[ 90 570 405 675]	[1350 1830  405  675]
66.98	2.0	532216	534830	ShowFixation	ANTI	12	1	True	red	600	[ 90 570 405 675]	[1350 1830  405  675]
69.594	0.2	534830	535049	BlankScreen	ANTI	12	1	True	red	600	[ 90 570 405 675]	[1350 1830  405  675]
69.813	1.0	535049	536072	ELCue	ANTI	12	1	True	red	600	[ 90 570 405 675]	[1350 1830  405  675]
71.256	6.0	536492	543118	ShowFixation	ANTI	13	1	True	red	180	[1035 1515  405  675]	[405 885 405 675]
77.882	0.2	543118	543357	BlankScreen	ANTI	13	1	True	red	180	[1035 1515  405  675]	[405 885 405 675]
78.121	1.0	543357	544397	ELCue	ANTI	13	1	True	red	180	[1035 1515  405  675]	[405 885 405 675]
79.578	6.0	544814	551426	ShowFixation	VGS	14	1	True	lime	180	[405 885 405 675]	[1035 1515  405  675]
86.19	0.2	551426	551665	BlankScreen	VGS	14	1	True	lime	180	[405 885 405 675]	[1035 1515  405  675]
86.429	1.0	551665	552705	ELCue	VGS	14	1	True	lime	180	[405 885 405 675]	[1035 1515  405  675]
87.885	6.0	553121	559734	ShowFixation	VGS	15	1	True	lime	600	[1350 1830  405  675]	[ 90 570 405 675]
94.498	0.2	559734	559973	BlankScreen	VGS	15	1	True	lime	600	[1350 1830  405  675]	[ 90 570 405 675]
94.737	1.0	559973	561014	ELCue	VGS	15	1	True	lime	600	[1350 1830  405  675]	[ 90 570 405 675]
96.198	2.0	561434	564059	ShowFixation	ANTI	16	1	True	red	180	[1035 1515  405  675]	[405 885 405 675]
98.823	0.2	564059	564294	BlankScreen	ANTI	16	1	True	red	180	[1035 1515  405  675]	[405 885 405 675]
99.058	1.0	564294	565335	ELCue	ANTI	16	1	True	red	180	[1035 1515  405  675]	[405 885 405 675]
137.288	6.0	602524	608549	ShowFixation	VGS	17	2	False	lime	40	[ 90 570 405 675]	[1350 1830  405  675]
143.313	0.2	608549	608788	BlankScreen	VGS	17	2	False	lime	40	[ 90 570 405 675]	[1350 1830  405  675]
143.552	1.0	608788	609788	ELCue	VGS	17	2	False	lime	40	[ 90 570 405 675]	[1350 1830  405  675]
144.976	6.0	610212	616240	ShowFixation	ANTI	18	2	False	red	40	[1350 1830  405  675]	[ 90 570 405 675]
151.005	0.2	616241	616479	BlankScreen	ANTI	18	2	False	red	40	[1350 1830  405  675]	[ 90 570 405 675]
151.243	1.0	616479	617479	ELCue	ANTI	18	2	False	red	40	[1350 1830  405  675]	[ 90 570 405 675]
152.671	6.0	617907	623931	ShowFixation	ANTI	19	2	False	red	180	[1035 1515  405  675]	[405 885 405 675]
158.696	0.2	623932	624170	BlankScreen	ANTI	19	2	False	red	180	[1035 1515  405  675]	[405 885 405 675]
158.935	1.0	624171	625171	ELCue	ANTI	19	2	False	red	180	[1035 1515  405  675]	[405 885 405 675]
160.358	2.0	625594	627623	ShowFixation	ANTI	20	2	False	red	180	[1035 1515  405  675]	[405 885 405 675]
162.387	0.2	627623	627858	BlankScreen	ANTI	20	2	False	red	180	[1035 1515  405  675]	[405 885 405 675]
162.622	1.0	627858	628858	ELCue	ANTI	20	2	False	red	180	[1035 1515  405  675]	[405 885 405 675]
164.049	2.0	629285	631310	ShowFixation	ANTI	21	2	False	red	460	[405 885 405 675]	[1035 1515  405  675]
166.074	0.2	631310	631545	BlankScreen	ANTI	21	2	False	red	460	[405 885 405 675]	[1035 1515  405  675]
166.309	1.0	631545	632545	ELCue	ANTI	21	2	False	red	460	[405 885 405 675]	[1035 1515  405  675]
167.734	2.0	632970	634996	ShowFixation	VGS	22	2	False	lime	600	[1350 1830  405  675]	[ 90 570 405 675]
169.76	0.2	634996	635231	BlankScreen	VGS	22	2	False	lime	600	[1350 1830  405  675]	[ 90 570 405 675]
169.996	1.0	635232	636232	ELCue	VGS	22	2	False	lime	600	[1350 1830  405  675]	[ 90 570 405 675]
171.413	2.0	636649	638683	ShowFixation	VGS	23	2	False	lime	180	[405 885 405 675]	[1035 1515  405  675]
173.447	0.2	638683	638919	BlankScreen	VGS	23	2	False	lime	180	[405 885 405 675]	[1035 1515  405  675]
173.683	1.0	638919	639919	ELCue	VGS	23	2	False	lime	180	[405 885 405 675]	[1035 1515  405  675]
175.106	6.0	640342	646371	ShowFixation	VGS	24	2	False	lime	460	[1035 1515  405  675]	[405 885 405 675]
181.135	0.2	646371	646610	BlankScreen	VGS	24	2	False	lime	460	[1035 1515  405  675]	[405 885 405 675]
181.374	1.0	646610	647610	ELCue	VGS	24	2	False	lime	460	[1035 1515  405  675]	[405 885 405 675]
182.797	2.0	648033	650062	ShowFixation	VGS	25	2	False	lime	180	[405 885 405 675]	[1035 1515  405  675]
184.826	0.2	650062	650297	BlankScreen	VGS	25	2	False	lime	180	[405 885 405 675]	[1035 1515  405  675]
185.061	1.0	650297	651297	ELCue	VGS	25	2	False	lime	180	[405 885 405 675]	[1035 1515  405  675]
186.482	6.0	651718	657749	ShowFixation	VGS	26	2	False	lime	460	[1035 1515  405  675]	[405 885 405 675]
192.513	0.2	657749	657988	BlankScreen	VGS	26	2	False	lime	460	[1035 1515  405  675]	[405 885 405 675]
192.752	1.0	657988	658988	ELCue	VGS	26	2	False	lime	460	[1035 1515  405  675]	[405 885 405 675]
194.155	6.0	659391	665423	ShowFixation	ANTI	27	2	False	red	40	[1350 1830  405  675]	[ 90 570 405 675]
200.187	0.2	665423	665662	BlankScreen	ANTI	27	2	False	red	40	[1350 1830  405  675]	[ 90 570 405 675]
200.426	1.0	665662	666662	ELCue	ANTI	27	2	False	red	40	[1350 1830  405  675]	[ 90 570 405 675]
201.847	2.0	667083	669114	ShowFixation	VGS	28	2	False	lime	40	[ 90 570 405 675]	[1350 1830  405  675]
203.878	0.2	669114	669349	BlankScreen	VGS	28	2	False	lime	40	[ 90 570 405 675]	[1350 1830  405  675]
204.113	1.0	669349	670349	ELCue	VGS	28	2	False	lime	40	[ 90 570 405 675]	[1350 1830  405  675]
205.536	2.0	670772	672801	ShowFixation	VGS	29	2	False	lime	460	[1035 1515  405  675]	[405 885 405 675]
207.565	0.2	672801	673036	BlankScreen	VGS	29	2	False	lime	460	[1035 1515  405  675]	[405 885 405 675]
207.8	1.0	673036	674036	ELCue	VGS	29	2	False	lime	460	[1035 1515  405  675]	[405 885 405 675]
209.219	2.0	674455	676488	ShowFixation	VGS	30	2	False	lime	460	[1035 1515  405  675]	[405 885 405 675]
211.252	0.2	676488	676723	BlankScreen	VGS	30	2	False	lime	460	[1035 1515  405  675]	[405 885 405 675]
211.487	1.0	676723	677723	ELCue	VGS	30	2	False	lime	460	[1035 1515  405  675]	[405 885 405 675]
212.911	2.0	678147	680175	ShowFixation	ANTI	31	2	False	red	180	[1035 1515  405  675]	[405 885 405 675]
214.939	0.2	680175	680410	BlankScreen	ANTI	31	2	False	red	180	[1035 1515  405  675]	[405 885 405 675]
215.174	1.0	680410	681410	ELCue	ANTI	31	2	False	red	180	[1035 1515  405  675]	[405 885 405 675]
216.597	2.0	681833	683862	ShowFixation	ANTI	32	2	False	red	600	[ 90 570 405 675]	[1350 1830  405  675]
218.626	0.2	683862	684097	BlankScreen	ANTI	32	2	False	red	600	[ 90 570 405 675]	[1350 1830  405  675]
218.861	1.0	684097	685097	ELCue	ANTI	32	2	False	red	600	[ 90 570 405 675]	[1350 1830  405  675]
220.283	2.0	685519	687549	ShowFixation	ANTI	33	2	False	red	40	[1350 1830  405  675]	[ 90 570 405 675]
222.313	0.2	687549	687784	BlankScreen	ANTI	33	2	False	red	40	[1350 1830  405  675]	[ 90 570 405 675]
222.548	1.0	687784	688784	ELCue	ANTI	33	2	False	red	40	[1350 1830  405  675]	[ 90 570 405 675]
223.967	6.0	689203	695236	ShowFixation	ANTI	34	2	False	red	600	[ 90 570 405 675]	[1350 1830  405  675]
230.0	0.2	695236	695475	BlankScreen	ANTI	34	2	False	red	600	[ 90 570 405 675]	[1350 1830  405  675]
230.239	1.0	695475	696475	ELCue	ANTI	34	2	False	red	600	[ 90 570 405 675]	[1350 1830  405  675]
231.657	2.0	696893	698927	ShowFixation	ANTI	35	2	False	red	600	[ 90 570 405 675]	[1350 1830  405  675]
233.691	0.2	698927	699162	BlankScreen	ANTI	35	2	False	red	600	[ 90 570 405 675]	[1350 1830  405  675]
233.926	1.0	699162	700162	ELCue	ANTI	35	2	False	red	600	[ 90 570 405 675]	[1350 1830  405  675]
235.35	6.0	700586	706614	ShowFixation	ANTI	36	2	False	red	460	[405 885 405 675]	[1035 1515  405  675]
241.378	0.2	706614	706853	BlankScreen	ANTI	36	2	False	red	460	[405 885 405 675]	[1035 1515  405  675]
241.617	1.0	706853	707853	ELCue	ANTI	36	2	False	red	460	[405 885 405 675]	[1035 1515  405  675]
243.016	6.0	708252	714288	ShowFixation	VGS	37	2	False	lime	600	[1350 1830  405  675]	[ 90 570 405 675]
249.052	0.2	714288	714527	BlankScreen	VGS	37	2	False	lime	600	[1350 1830  405  675]	[ 90 570 405 675]
249.291	1.0	714527	715527	ELCue	VGS	37	2	False	lime	600	[1350 1830  405  675]	[ 90 570 405 675]
250.713	6.0	715949	721979	ShowFixation	ANTI	38	2	False	red	180	[1035 1515  405  675]	[405 885 405 675]
256.743	0.2	721979	722218	BlankScreen	ANTI	38	2	False	red	180	[1035 1515  405  675]	[405 885 405 675]
256.982	1.0	722218	723218	ELCue	ANTI	38	2	False	red	180	[1035 1515  405  675]	[405 885 405 675]
258.401	2.0	723637	725670	ShowFixation	VGS	39	2	False	lime	600	[1350 1830  405  675]	[ 90 570 405 675]
260.434	0.2	725670	725905	BlankScreen	VGS	39	2	False	lime	600	[1350 1830  405  675]	[ 90 570 405 675]
260.669	1.0	725905	726905	ELCue	VGS	39	2	False	lime	600	[1350 1830  405  675]	[ 90 570 405 675]
262.095	6.0	727331	733357	ShowFixation	ANTI	40	2	False	red	600	[ 90 570 405 675]	[1350 1830  405  675]
268.121	0.2	733357	733596	BlankScreen	ANTI	40	2	False	red	600	[ 90 570 405 675]	[1350 1830  405  675]
268.36	1.0	733596	734596	ELCue	ANTI	40	2	False	red	600	[ 90 570 405 675]	[1350 1830  405  675]
269.782	6.0	735018	741048	ShowFixation	VGS	41	2	False	lime	40	[ 90 570 405 675]	[1350 1830  405  675]
275.812	0.2	741048	741287	BlankScreen	VGS	41	2	False	lime	40	[ 90 570 405 675]	[1350 1830  405  675]
276.051	1.0	741287	742287	ELCue	VGS	41	2	False	lime	40	[ 90 570 405 675]	[1350 1830  405  675]
277.47	6.0	742706	748738	ShowFixation	ANTI	42	2	False	red	460	[405 885 405 675]	[1035 1515  405  675]
283.502	0.2	748738	748978	BlankScreen	ANTI	42	2	False	red	460	[405 885 405 675]	[1035 1515  405  675]
283.742	1.0	748978	749978	ELCue	ANTI	42	2	False	red	460	[405 885 405 675]	[1035 1515  405  675]
285.165	2.0	750401	752429	ShowFixation	ANTI	43	2	False	red	460	[405 885 405 675]	[1035 1515  405  675]
287.193	0.2	752429	752665	BlankScreen	ANTI	43	2	False	red	460	[405 885 405 675]	[1035 1515  405  675]
287.429	1.0	752665	753665	ELCue	ANTI	43	2	False	red	460	[405 885 405 675]	[1035 1515  405  675]
288.85	6.0	754086	760116	ShowFixation	VGS	44	2	False	lime	180	[405 885 405 675]	[1035 1515  405  675]
294.88	0.2	760116	760356	BlankScreen	VGS	44	2	False	lime	180	[405 885 405 675]	[1035 1515  405  675]
295.121	1.0	760357	761357	ELCue	VGS	44	2	False	lime	180	[405 885 405 675]	[1035 1515  405  675]
296.544	6.0	761780	767808	ShowFixation	VGS	45	2	False	lime	180	[405 885 405 675]	[1035 1515  405  675]
302.572	0.2	767808	768047	BlankScreen	VGS	45	2	False	lime	180	[405 885 405 675]	[1035 1515  405  675]
302.812	1.0	768048	769048	ELCue	VGS	45	2	False	lime	180	[405 885 405 675]	[1035 1515  405  675]
304.264	2.0	769500	771533	ShowFixation	VGS	46	2	False	lime	40	[ 90 570 405 675]	[1350 1830  405  675]
306.297	0.2	771533	771768	BlankScreen	VGS	46	2	False	lime	40	[ 90 570 405 675]	[1350 1830  405  675]
306.532	1.0	771768	772768	ELCue	VGS	46	2	False	lime	40	[ 90 570 405 675]	[1350 1830  405  675]
307.955	2.0	773191	775220	ShowFixation	ANTI	47	2	False	red	40	[1350 1830  405  675]	[ 90 570 405 675]
309.984	0.2	775220	775455	BlankScreen	ANTI	47	2	False	red	40	[1350 1830  405  675]	[ 90 570 405 675]
310.219	1.0	775455	776455	ELCue	ANTI	47	2	False	red	40	[1350 1830  405  675]	[ 90 570 405 675]
311.641	6.0	776877	782907	ShowFixation	VGS	48	2	False	lime	600	[1350 1830  405  675]	[ 90 570 405 675]
317.671	0.2	782907	783146	BlankScreen	VGS	48	2	False	lime	600	[1350 1830  405  675]	[ 90 570 405 675]
317.91	1.0	783146	784146	ELCue	VGS	48	2	False	lime	600	[1350 1830  405  675]	[ 90 570 405 675]
337.601	2.0	802837	804866	ShowFixation	ANTI	49	3	False	red	460	[405 885 405 675]	[1035 1515  405  675]
339.63	0.2	804866	805101	BlankScreen	ANTI	49	3	False	red	460	[405 885 405 675]	[1035 1515  405  675]
339.865	1.0	805101	806101	ELCue	ANTI	49	3	False	red	460	[405 885 405 675]	[1035 1515  405  675]
341.286	2.0	806522	808553	ShowFixation	ANTI	50	3	False	red	460	[405 885 405 675]	[1035 1515  405  675]
343.317	0.2	808553	808788	BlankScreen	ANTI	50	3	False	red	460	[405 885 405 675]	[1035 1515  405  675]
343.552	1.0	808788	809788	ELCue	ANTI	50	3	False	red	460	[405 885 405 675]	[1035 1515  405  675]
344.968	6.0	810204	816239	ShowFixation	ANTI	51	3	False	red	40	[1350 1830  405  675]	[ 90 570 405 675]
351.003	0.2	816239	816479	BlankScreen	ANTI	51	3	False	red	40	[1350 1830  405  675]	[ 90 570 405 675]
351.243	1.0	816479	817479	ELCue	ANTI	51	3	False	red	40	[1350 1830  405  675]	[ 90 570 405 675]
352.665	6.0	817901	823930	ShowFixation	ANTI	52	3	False	red	600	[ 90 570 405 675]	[1350 1830  405  675]
358.694	0.2	823930	824170	BlankScreen	ANTI	52	3	False	red	600	[ 90 570 405 675]	[1350 1830  405  675]
358.934	1.0	824170	825170	ELCue	ANTI	52	3	False	red	600	[ 90 570 405 675]	[1350 1830  405  675]
360.355	6.0	825591	831621	ShowFixation	VGS	53	3	False	lime	40	[ 90 570 405 675]	[1350 1830  405  675]
366.385	0.2	831621	831861	BlankScreen	VGS	53	3	False	lime	40	[ 90 570 405 675]	[1350 1830  405  675]
366.625	1.0	831861	832861	ELCue	VGS	53	3	False	lime	40	[ 90 570 405 675]	[1350 1830  405  675]
368.038	6.0	833274	839312	ShowFixation	ANTI	54	3	False	red	600	[ 90 570 405 675]	[1350 1830  405  675]
374.076	0.2	839312	839552	BlankScreen	ANTI	54	3	False	red	600	[ 90 570 405 675]	[1350 1830  405  675]
374.316	1.0	839552	840552	ELCue	ANTI	54	3	False	red	600	[ 90 570 405 675]	[1350 1830  405  675]
375.739	2.0	840975	843003	ShowFixation	VGS	55	3	False	lime	40	[ 90 570 405 675]	[1350 1830  405  675]
377.767	0.2	843003	843239	BlankScreen	VGS	55	3	False	lime	40	[ 90 570 405 675]	[1350 1830  405  675]
378.003	1.0	843239	844239	ELCue	VGS	55	3	False	lime	40	[ 90 570 405 675]	[1350 1830  405  675]
379.425	2.0	844661	846690	ShowFixation	ANTI	56	3	False	red	600	[ 90 570 405 675]	[1350 1830  405  675]
381.454	0.2	846690	846926	BlankScreen	ANTI	56	3	False	red	600	[ 90 570 405 675]	[1350 1830  405  675]
381.69	1.0	846926	847926	ELCue	ANTI	56	3	False	red	600	[ 90 570 405 675]	[1350 1830  405  675]
383.109	6.0	848345	854377	ShowFixation	VGS	57	3	False	lime	180	[405 885 405 675]	[1035 1515  405  675]
389.141	0.2	854377	854616	BlankScreen	VGS	57	3	False	lime	180	[405 885 405 675]	[1035 1515  405  675]
389.38	1.0	854616	855616	ELCue	VGS	57	3	False	lime	180	[405 885 405 675]	[1035 1515  405  675]
390.804	2.0	856040	858068	ShowFixation	ANTI	58	3	False	red	180	[1035 1515  405  675]	[405 885 405 675]
392.832	0.2	858068	858303	BlankScreen	ANTI	58	3	False	red	180	[1035 1515  405  675]	[405 885 405 675]
393.067	1.0	858303	859303	ELCue	ANTI	58	3	False	red	180	[1035 1515  405  675]	[405 885 405 675]
394.49	6.0	859726	865755	ShowFixation	VGS	59	3	False	lime	600	[1350 1830  405  675]	[ 90 570 405 675]
400.519	0.2	865755	865994	BlankScreen	VGS	59	3	False	lime	600	[1350 1830  405  675]	[ 90 570 405 675]
400.758	1.0	865994	866994	ELCue	VGS	59	3	False	lime	600	[1350 1830  405  675]	[ 90 570 405 675]
402.178	6.0	867414	873446	ShowFixation	VGS	60	3	False	lime	600	[1350 1830  405  675]	[ 90 570 405 675]
408.21	0.2	873446	873685	BlankScreen	VGS	60	3	False	lime	600	[1350 1830  405  675]	[ 90 570 405 675]
408.449	1.0	873685	874685	ELCue	VGS	60	3	False	lime	600	[1350 1830  405  675]	[ 90 570 405 675]
409.875	6.0	875111	881137	ShowFixation	VGS	61	3	False	lime	180	[405 885 405 675]	[1035 1515  405  675]
415.901	0.2	881137	881376	BlankScreen	VGS	61	3	False	lime	180	[405 885 405 675]	[1035 1515  405  675]
416.14	1.0	881376	882376	ELCue	VGS	61	3	False	lime	180	[405 885 405 675]	[1035 1515  405  675]
417.564	2.0	882800	884828	ShowFixation	ANTI	62	3	False	red	40	[1350 1830  405  675]	[ 90 570 405 675]
419.592	0.2	884828	885063	BlankScreen	ANTI	62	3	False	red	40	[1350 1830  405  675]	[ 90 570 405 675]
419.827	1.0	885063	886063	ELCue	ANTI	62	3	False	red	40	[1350 1830  405  675]	[ 90 570 405 675]
421.246	2.0	886482	888515	ShowFixation	VGS	63	3	False	lime	40	[ 90 570 405 675]	[1350 1830  405  675]
423.279	0.2	888515	888750	BlankScreen	VGS	63	3	False	lime	40	[ 90 570 405 675]	[1350 1830  405  675]
423.514	1.0	888750	889750	ELCue	VGS	63	3	False	lime	40	[ 90 570 405 675]	[1350 1830  405  675]
424.937	2.0	890173	892202	ShowFixation	VGS	64	3	False	lime	600	[1350 1830  405  675]	[ 90 570 405 675]
426.966	0.2	892202	892437	BlankScreen	VGS	64	3	False	lime	600	[1350 1830  405  675]	[ 90 570 405 675]
427.201	1.0	892437	893437	ELCue	VGS	64	3	False	lime	600	[1350 1830  405  675]	[ 90 570 405 675]
428.626	2.0	893862	895889	ShowFixation	VGS	65	3	False	lime	180	[405 885 405 675]	[1035 1515  405  675]
430.653	0.2	895889	896124	BlankScreen	VGS	65	3	False	lime	180	[405 885 405 675]	[1035 1515  405  675]
430.888	1.0	896124	897124	ELCue	VGS	65	3	False	lime	180	[405 885 405 675]	[1035 1515  405  675]
432.31	2.0	897546	899576	ShowFixation	ANTI	66	3	False	red	180	[1035 1515  405  675]	[405 885 405 675]
434.341	0.2	899577	899811	BlankScreen	ANTI	66	3	False	red	180	[1035 1515  405  675]	[405 885 405 675]
434.575	1.0	899811	900811	ELCue	ANTI	66	3	False	red	180	[1035 1515  405  675]	[405 885 405 675]
435.995	6.0	901231	907264	ShowFixation	ANTI	67	3	False	red	180	[1035 1515  405  675]	[405 885 405 675]
442.028	0.2	907264	907503	BlankScreen	ANTI	67	3	False	red	180	[1035 1515  405  675]	[405 885 405 675]
442.267	1.0	907503	908503	ELCue	ANTI	67	3	False	red	180	[1035 1515  405  675]	[405 885 405 675]
443.684	6.0	908920	914955	ShowFixation	ANTI	68	3	False	red	460	[405 885 405 675]	[1035 1515  405  675]
449.719	0.2	914955	915194	BlankScreen	ANTI	68	3	False	red	460	[405 885 405 675]	[1035 1515  405  675]
449.958	1.0	915194	916194	ELCue	ANTI	68	3	False	red	460	[405 885 405 675]	[1035 1515  405  675]
451.376	2.0	916612	918646	ShowFixation	ANTI	69	3	False	red	40	[1350 1830  405  675]	[ 90 570 405 675]
453.41	0.2	918646	918881	BlankScreen	ANTI	69	3	False	red	40	[1350 1830  405  675]	[ 90 570 405 675]
453.645	1.0	918881	919881	ELCue	ANTI	69	3	False	red	40	[1350 1830  405  675]	[ 90 570 405 675]
455.065	2.0	920301	922333	ShowFixation	VGS	70	3	False	lime	600	[1350 1830  405  675]	[ 90 570 405 675]
457.097	0.2	922333	922568	BlankScreen	VGS	70	3	False	lime	600	[1350 1830  405  675]	[ 90 570 405 675]
457.332	1.0	922568	923568	ELCue	VGS	70	3	False	lime	600	[1350 1830  405  675]	[ 90 570 405 675]
458.752	2.0	923988	926020	ShowFixation	VGS	71	3	False	lime	460	[1035 1515  405  675]	[405 885 405 675]
460.784	0.2	926020	926255	BlankScreen	VGS	71	3	False	lime	460	[1035 1515  405  675]	[405 885 405 675]
461.019	1.0	926255	927255	ELCue	VGS	71	3	False	lime	460	[1035 1515  405  675]	[405 885 405 675]
462.442	6.0	927678	933706	ShowFixation	ANTI	72	3	False	red	40	[1350 1830  405  675]	[ 90 570 405 675]
468.47	0.2	933706	933946	BlankScreen	ANTI	72	3	False	red	40	[1350 1830  405  675]	[ 90 570 405 675]
468.71	1.0	933946	934946	ELCue	ANTI	72	3	False	red	40	[1350 1830  405  675]	[ 90 570 405 675]
470.13	2.0	935366	937397	ShowFixation	VGS	73	3	False	lime	460	[1035 1515  405  675]	[405 885 405 675]
472.161	0.2	937397	937633	BlankScreen	VGS	73	3	False	lime	460	[1035 1515  405  675]	[405 885 405 675]
472.397	1.0	937633	938633	ELCue	VGS	73	3	False	lime	460	[1035 1515  405  675]	[405 885 405 675]
473.82	6.0	939056	945084	ShowFixation	VGS	74	3	False	lime	460	[1035 1515  405  675]	[405 885 405 675]
479.848	0.2	945084	945324	BlankScreen	VGS	74	3	False	lime	460	[1035 1515  405  675]	[405 885 405 675]
480.088	1.0	945324	946324	ELCue	VGS	74	3	False	lime	460	[1035 1515  405  675]	[405 885 405 675]
481.509	6.0	946745	952775	ShowFixation	VGS	75	3	False	lime	460	[1035 1515  405  675]	[405 885 405 675]
487.539	0.2	952775	953015	BlankScreen	VGS	75	3	False	lime	460	[1035 1515  405  675]	[405 885 405 675]
487.779	1.0	953015	954015	ELCue	VGS	75	3	False	lime	460	[1035 1515  405  675]	[405 885 405 675]
489.201	6.0	954437	960466	ShowFixation	VGS	76	3	False	lime	40	[ 90 570 405 675]	[1350 1830  405  675]
495.23	0.2	960466	960706	BlankScreen	VGS	76	3	False	lime	40	[ 90 570 405 675]	[1350 1830  405  675]
495.47	1.0	960706	961706	ELCue	VGS	76	3	False	lime	40	[ 90 570 405 675]	[1350 1830  405  675]
496.891	2.0	962127	964157	ShowFixation	ANTI	77	3	False	red	600	[ 90 570 405 675]	[1350 1830  405  675]
498.921	0.2	964157	964393	BlankScreen	ANTI	77	3	False	red	600	[ 90 570 405 675]	[1350 1830  405  675]
499.157	1.0	964393	965393	ELCue	ANTI	77	3	False	red	600	[ 90 570 405 675]	[1350 1830  405  675]
500.577	6.0	965813	971844	ShowFixation	ANTI	78	3	False	red	460	[405 885 405 675]	[1035 1515  405  675]
506.608	0.2	971844	972083	BlankScreen	ANTI	78	3	False	red	460	[405 885 405 675]	[1035 1515  405  675]
506.847	1.0	972083	973083	ELCue	ANTI	78	3	False	red	460	[405 885 405 675]	[1035 1515  405  675]
508.268	2.0	973504	975535	ShowFixation	VGS	79	3	False	lime	180	[405 885 405 675]	[1035 1515  405  675]
510.299	0.2	975535	975770	BlankScreen	VGS	79	3	False	lime	180	[405 885 405 675]	[1035 1515  405  675]
510.534	1.0	975770	976770	ELCue	VGS	79	3	False	lime	180	[405 885 405 675]	[1035 1515  405  675]
511.955	6.0	977191	983222	ShowFixation	ANTI	80	3	False	red	180	[1035 1515  405  675]	[405 885 405 675]
517.986	0.2	983222	983461	BlankScreen	ANTI	80	3	False	red	180	[1035 1515  405  675]	[405 885 405 675]
518.225	1.0	983461	984461	ELCue	ANTI	80	3	False	red	180	[1035 1515  405  675]	[405 885 405 675]
548.926	6.0	1014162	1020192	ShowFixation	ANTI	81	4	False	red	600	[ 90 570 405 675]	[1350 1830  405  675]
554.956	0.2	1020192	1020431	BlankScreen	ANTI	81	4	False	red	600	[ 90 570 405 675]	[1350 1830  405  675]
555.195	1.0	1020431	1021431	ELCue	ANTI	81	4	False	red	600	[ 90 570 405 675]	[1350 1830  405  675]
556.621	6.0	1021857	1027883	ShowFixation	VGS	82	4	False	lime	40	[ 90 570 405 675]	[1350 1830  405  675]
562.647	0.2	1027883	1028122	BlankScreen	VGS	82	4	False	lime	40	[ 90 570 405 675]	[1350 1830  405  675]
562.886	1.0	1028122	1029122	ELCue	VGS	82	4	False	lime	40	[ 90 570 405 675]	[1350 1830  405  675]
564.309	2.0	1029545	1031574	ShowFixation	VGS	83	4	False	lime	40	[ 90 570 405 675]	[1350 1830  405  675]
566.338	0.2	1031574	1031809	BlankScreen	VGS	83	4	False	lime	40	[ 90 570 405 675]	[1350 1830  405  675]
566.573	1.0	1031809	1032809	ELCue	VGS	83	4	False	lime	40	[ 90 570 405 675]	[1350 1830  405  675]
567.997	6.0	1033233	1039261	ShowFixation	VGS	84	4	False	lime	600	[1350 1830  405  675]	[ 90 570 405 675]
574.026	0.2	1039262	1039500	BlankScreen	VGS	84	4	False	lime	600	[1350 1830  405  675]	[ 90 570 405 675]
574.264	1.0	1039500	1040500	ELCue	VGS	84	4	False	lime	600	[1350 1830  405  675]	[ 90 570 405 675]
575.685	2.0	1040921	1042952	ShowFixation	VGS	85	4	False	lime	600	[1350 1830  405  675]	[ 90 570 405 675]
577.717	0.2	1042953	1043187	BlankScreen	VGS	85	4	False	lime	600	[1350 1830  405  675]	[ 90 570 405 675]
577.951	1.0	1043187	1044187	ELCue	VGS	85	4	False	lime	600	[1350 1830  405  675]	[ 90 570 405 675]
579.357	6.0	1044593	1050623	ShowFixation	VGS	86	4	False	lime	460	[1035 1515  405  675]	[405 885 405 675]
585.387	0.2	1050623	1050862	BlankScreen	VGS	86	4	False	lime	460	[1035 1515  405  675]	[405 885 405 675]
585.626	1.0	1050862	1051862	ELCue	VGS	86	4	False	lime	460	[1035 1515  405  675]	[405 885 405 675]
587.053	6.0	1052289	1058331	ShowFixation	VGS	87	4	False	lime	180	[405 885 405 675]	[1035 1515  405  675]
593.095	0.2	1058331	1058570	BlankScreen	VGS	87	4	False	lime	180	[405 885 405 675]	[1035 1515  405  675]
593.334	1.0	1058570	1059570	ELCue	VGS	87	4	False	lime	180	[405 885 405 675]	[1035 1515  405  675]
594.737	2.0	1059973	1062005	ShowFixation	VGS	88	4	False	lime	180	[405 885 405 675]	[1035 1515  405  675]
596.769	0.2	1062005	1062240	BlankScreen	VGS	88	4	False	lime	180	[405 885 405 675]	[1035 1515  405  675]
597.004	1.0	1062240	1063240	ELCue	VGS	88	4	False	lime	180	[405 885 405 675]	[1035 1515  405  675]
598.422	6.0	1063658	1069692	ShowFixation	ANTI	89	4	False	red	180	[1035 1515  405  675]	[405 885 405 675]
604.456	0.2	1069692	1069931	BlankScreen	ANTI	89	4	False	red	180	[1035 1515  405  675]	[405 885 405 675]
604.695	1.0	1069931	1070931	ELCue	ANTI	89	4	False	red	180	[1035 1515  405  675]	[405 885 405 675]
606.112	2.0	1071348	1073383	ShowFixation	VGS	90	4	False	lime	460	[1035 1515  405  675]	[405 885 405 675]
608.147	0.2	1073383	1073618	BlankScreen	VGS	90	4	False	lime	460	[1035 1515  405  675]	[405 885 405 675]
608.382	1.0	1073618	1074618	ELCue	VGS	90	4	False	lime	460	[1035 1515  405  675]	[405 885 405 675]
609.77	2.0	1075006	1077036	ShowFixation	ANTI	91	4	False	red	40	[1350 1830  405  675]	[ 90 570 405 675]
611.8	0.2	1077036	1077272	BlankScreen	ANTI	91	4	False	red	40	[1350 1830  405  675]	[ 90 570 405 675]
612.036	1.0	1077272	1078272	ELCue	ANTI	91	4	False	red	40	[1350 1830  405  675]	[ 90 570 405 675]
613.462	6.0	1078698	1084723	ShowFixation	ANTI	92	4	False	red	40	[1350 1830  405  675]	[ 90 570 405 675]
619.487	0.2	1084723	1084963	BlankScreen	ANTI	92	4	False	red	40	[1350 1830  405  675]	[ 90 570 405 675]
619.727	1.0	1084963	1085963	ELCue	ANTI	92	4	False	red	40	[1350 1830  405  675]	[ 90 570 405 675]
621.151	2.0	1086387	1088414	ShowFixation	ANTI	93	4	False	red	40	[1350 1830  405  675]	[ 90 570 405 675]
623.178	0.2	1088414	1088650	BlankScreen	ANTI	93	4	False	red	40	[1350 1830  405  675]	[ 90 570 405 675]
623.414	1.0	1088650	1089650	ELCue	ANTI	93	4	False	red	40	[1350 1830  405  675]	[ 90 570 405 675]
624.835	6.0	1090071	1096101	ShowFixation	ANTI	94	4	False	red	180	[1035 1515  405  675]	[405 885 405 675]
630.865	0.2	1096101	1096340	BlankScreen	ANTI	94	4	False	red	180	[1035 1515  405  675]	[405 885 405 675]
631.104	1.0	1096340	1097340	ELCue	ANTI	94	4	False	red	180	[1035 1515  405  675]	[405 885 405 675]
632.522	2.0	1097758	1099792	ShowFixation	ANTI	95	4	False	red	460	[405 885 405 675]	[1035 1515  405  675]
634.556	0.2	1099792	1100027	BlankScreen	ANTI	95	4	False	red	460	[405 885 405 675]	[1035 1515  405  675]
634.791	1.0	1100027	1101027	ELCue	ANTI	95	4	False	red	460	[405 885 405 675]	[1035 1515  405  675]
636.21	2.0	1101446	1103479	ShowFixation	ANTI	96	4	False	red	180	[1035 1515  405  675]	[405 885 405 675]
638.243	0.2	1103479	1103714	BlankScreen	ANTI	96	4	False	red	180	[1035 1515  405  675]	[405 885 405 675]
638.478	1.0	1103714	1104714	ELCue	ANTI	96	4	False	red	180	[1035 1515  405  675]	[405 885 405 675]
639.88	6.0	1105116	1111149	ShowFixation	VGS	97	4	False	lime	460	[1035 1515  405  675]	[405 885 405 675]
645.913	0.2	1111149	1111389	BlankScreen	VGS	97	4	False	lime	460	[1035 1515  405  675]	[405 885 405 675]
646.153	1.0	1111389	1112389	ELCue	VGS	97	4	False	lime	460	[1035 1515  405  675]	[405 885 405 675]
647.576	6.0	1112812	1118840	ShowFixation	ANTI	98	4	False	red	40	[1350 1830  405  675]	[ 90 570 405 675]
653.604	0.2	1118840	1119080	BlankScreen	ANTI	98	4	False	red	40	[1350 1830  405  675]	[ 90 570 405 675]
653.844	1.0	1119080	1120080	ELCue	ANTI	98	4	False	red	40	[1350 1830  405  675]	[ 90 570 405 675]
655.264	6.0	1120500	1126531	ShowFixation	ANTI	99	4	False	red	460	[405 885 405 675]	[1035 1515  405  675]
661.295	0.2	1126531	1126771	BlankScreen	ANTI	99	4	False	red	460	[405 885 405 675]	[1035 1515  405  675]
661.535	1.0	1126771	1127771	ELCue	ANTI	99	4	False	red	460	[405 885 405 675]	[1035 1515  405  675]
662.955	2.0	1128191	1130222	ShowFixation	ANTI	100	4	False	red	600	[ 90 570 405 675]	[1350 1830  405  675]
664.986	0.2	1130222	1130457	BlankScreen	ANTI	100	4	False	red	600	[ 90 570 405 675]	[1350 1830  405  675]
665.221	1.0	1130457	1131457	ELCue	ANTI	100	4	False	red	600	[ 90 570 405 675]	[1350 1830  405  675]
666.628	6.0	1131864	1137892	ShowFixation	VGS	101	4	False	lime	180	[405 885 405 675]	[1035 1515  405  675]
672.656	0.2	1137892	1138132	BlankScreen	VGS	101	4	False	lime	180	[405 885 405 675]	[1035 1515  405  675]
672.896	1.0	1138132	1139132	ELCue	VGS	101	4	False	lime	180	[405 885 405 675]	[1035 1515  405  675]
674.322	6.0	1139558	1145583	ShowFixation	ANTI	102	4	False	red	460	[405 885 405 675]	[1035 1515  405  675]
680.347	0.2	1145583	1145823	BlankScreen	ANTI	102	4	False	red	460	[405 885 405 675]	[1035 1515  405  675]
680.587	1.0	1145823	1146823	ELCue	ANTI	102	4	False	red	460	[405 885 405 675]	[1035 1515  405  675]
682.011	2.0	1147247	1149274	ShowFixation	VGS	103	4	False	lime	460	[1035 1515  405  675]	[405 885 405 675]
684.038	0.2	1149274	1149510	BlankScreen	VGS	103	4	False	lime	460	[1035 1515  405  675]	[405 885 405 675]
684.274	1.0	1149510	1150510	ELCue	VGS	103	4	False	lime	460	[1035 1515  405  675]	[405 885 405 675]
685.698	2.0	1150934	1152961	ShowFixation	VGS	104	4	False	lime	180	[405 885 405 675]	[1035 1515  405  675]
687.725	0.2	1152961	1153197	BlankScreen	VGS	104	4	False	lime	180	[405 885 405 675]	[1035 1515  405  675]
687.961	1.0	1153197	1154197	ELCue	VGS	104	4	False	lime	180	[405 885 405 675]	[1035 1515  405  675]
689.377	2.0	1154613	1156648	ShowFixation	VGS	105	4	False	lime	600	[1350 1830  405  675]	[ 90 570 405 675]
691.412	0.2	1156648	1156884	BlankScreen	VGS	105	4	False	lime	600	[1350 1830  405  675]	[ 90 570 405 675]
691.648	1.0	1156884	1157884	ELCue	VGS	105	4	False	lime	600	[1350 1830  405  675]	[ 90 570 405 675]
693.076	6.0	1158312	1164352	ShowFixation	VGS	106	4	False	lime	600	[1350 1830  405  675]	[ 90 570 405 675]
699.116	0.2	1164352	1164591	BlankScreen	VGS	106	4	False	lime	600	[1350 1830  405  675]	[ 90 570 405 675]
699.355	1.0	1164591	1165591	ELCue	VGS	106	4	False	lime	600	[1350 1830  405  675]	[ 90 570 405 675]
700.782	2.0	1166018	1168043	ShowFixation	VGS	107	4	False	lime	40	[ 90 570 405 675]	[1350 1830  405  675]
702.807	0.2	1168043	1168278	BlankScreen	VGS	107	4	False	lime	40	[ 90 570 405 675]	[1350 1830  405  675]
703.042	1.0	1168278	1169278	ELCue	VGS	107	4	False	lime	40	[ 90 570 405 675]	[1350 1830  405  675]
704.465	2.0	1169701	1171730	ShowFixation	ANTI	108	4	False	red	460	[405 885 405 675]	[1035 1515  405  675]
706.494	0.2	1171730	1171965	BlankScreen	ANTI	108	4	False	red	460	[405 885 405 675]	[1035 1515  405  675]
706.729	1.0	1171965	1172965	ELCue	ANTI	108	4	False	red	460	[405 885 405 675]	[1035 1515  405  675]
708.149	6.0	1173385	1179417	ShowFixation	VGS	109	4	False	lime	40	[ 90 570 405 675]	[1350 1830  405  675]
714.182	0.2	1179418	1179656	BlankScreen	VGS	109	4	False	lime	40	[ 90 570 405 675]	[1350 1830  405  675]
714.421	1.0	1179657	1180657	ELCue	VGS	109	4	False	lime	40	[ 90 570 405 675]	[1350 1830  405  675]
715.844	2.0	1181080	1183109	ShowFixation	ANTI	110	4	False	red	600	[ 90 570 405 675]	[1350 1830  405  675]
717.873	0.2	1183109	1183344	BlankScreen	ANTI	110	4	False	red	600	[ 90 570 405 675]	[1350 1830  405  675]
718.108	1.0	1183344	1184344	ELCue	ANTI	110	4	False	red	600	[ 90 570 405 675]	[1350 1830  405  675]
719.535	6.0	1184771	1190812	ShowFixation	ANTI	111	4	False	red	600	[ 90 570 405 675]	[1350 1830  405  675]
725.576	0.2	1190812	1191052	BlankScreen	ANTI	111	4	False	red	600	[ 90 570 405 675]	[1350 1830  405  675]
725.816	1.0	1191052	1192052	ELCue	ANTI	111	4	False	red	600	[ 90 570 405 675]	[1350 1830  405  675]
727.235	2.0	1192471	1194503	ShowFixation	ANTI	112	4	False	red	180	[1035 1515  405  675]	[405 885 405 675]
729.267	0.2	1194503	1194739	BlankScreen	ANTI	112	4	False	red	180	[1035 1515  405  675]	[405 885 405 675]
729.503	1.0	1194739	1195739	ELCue	ANTI	112	4	False	red	180	[1035 1515  405  675]	[405 885 405 675]
