onset	duration	startTime	stopTime	eventIdentifier	trial_type	trial_number	block_number	is_practice	fixation_color	cue_side	aoi_correct	aoi_incorrect
0.144	2.0	2532519	2534554	ShowFixation	VGS	1	1	True	lime	180	[405 885 405 675]	[1035 1515  405  675]
2.179	0.2	2534554	2534790	BlankScreen	VGS	1	1	True	lime	180	[405 885 405 675]	[1035 1515  405  675]
2.415	1.0	2534790	2535830	ELCue	VGS	1	1	True	lime	180	[405 885 405 675]	[1035 1515  405  675]
3.907	6.0	2536282	2542859	ShowFixation	ANTI	2	1	True	red	460	[405 885 405 675]	[1035 1515  405  675]
10.484	0.2	2542859	2543098	BlankScreen	ANTI	2	1	True	red	460	[405 885 405 675]	[1035 1515  405  675]
10.723	1.0	2543098	2544138	ELCue	ANTI	2	1	True	red	460	[405 885 405 675]	[1035 1515  405  675]
12.168	2.0	2544543	2547167	ShowFixation	ANTI	3	1	True	red	180	[1035 1515  405  675]	[405 885 405 675]
14.792	0.2	2547167	2547385	BlankScreen	ANTI	3	1	True	red	180	[1035 1515  405  675]	[405 885 405 675]
15.01	1.0	2547385	2548409	ELCue	ANTI	3	1	True	red	180	[1035 1515  405  675]	[405 885 405 675]
16.439	2.0	2548814	2551455	ShowFixation	VGS	4	1	True	lime	460	[1035 1515  405  675]	[405 885 405 675]
19.08	0.2	2551455	2551690	BlankScreen	VGS	4	1	True	lime	460	[1035 1515  405  675]	[405 885 405 675]
19.315	1.0	2551690	2552731	ELCue	VGS	4	1	True	lime	460	[1035 1515  405  675]	[405 885 405 675]
20.725	6.0	2553100	2559759	ShowFixation	ANTI	5	1	True	red	180	[1035 1515  405  675]	[405 885 405 675]
27.384	0.2	2559759	2559998	BlankScreen	ANTI	5	1	True	red	180	[1035 1515  405  675]	[405 885 405 675]
27.623	1.0	2559998	2561038	ELCue	ANTI	5	1	True	red	180	[1035 1515  405  675]	[405 885 405 675]
29.062	6.0	2561437	2568067	ShowFixation	ANTI	6	1	True	red	40	[1350 1830  405  675]	[ 90 570 405 675]
35.692	0.2	2568067	2568307	BlankScreen	ANTI	6	1	True	red	40	[1350 1830  405  675]	[ 90 570 405 675]
35.932	1.0	2568307	2569347	ELCue	ANTI	6	1	True	red	40	[1350 1830  405  675]	[ 90 570 405 675]
37.374	2.0	2569749	2572393	ShowFixation	VGS	7	1	True	lime	600	[1350 1830  405  675]	[ 90 570 405 675]
40.018	0.2	2572393	2572628	BlankScreen	VGS	7	1	True	lime	600	[1350 1830  405  675]	[ 90 570 405 675]
40.253	1.0	2572628	2573668	ELCue	VGS	7	1	True	lime	600	[1350 1830  405  675]	[ 90 570 405 675]
41.7	2.0	2574075	2576697	ShowFixation	VGS	8	1	True	lime	40	[ 90 570 405 675]	[1350 1830  405  675]
44.322	0.2	2576697	2576915	BlankScreen	VGS	8	1	True	lime	40	[ 90 570 405 675]	[1350 1830  405  675]
44.54	1.0	2576915	2577939	ELCue	VGS	8	1	True	lime	40	[ 90 570 405 675]	[1350 1830  405  675]
45.971	6.0	2578346	2584984	ShowFixation	VGS	9	1	True	lime	40	[ 90 570 405 675]	[1350 1830  405  675]
52.609	0.2	2584984	2585224	BlankScreen	VGS	9	1	True	lime	40	[ 90 570 405 675]	[1350 1830  405  675]
52.849	1.0	2585224	2586264	ELCue	VGS	9	1	True	lime	40	[ 90 570 405 675]	[1350 1830  405  675]
54.296	2.0	2586671	2589309	ShowFixation	ANTI	10	1	True	red	40	[1350 1830  405  675]	[ 90 570 405 675]
56.934	0.2	2589309	2589545	BlankScreen	ANTI	10	1	True	red	40	[1350 1830  405  675]	[ 90 570 405 675]
57.17	1.0	2589545	2590585	ELCue	ANTI	10	1	True	red	40	[1350 1830  405  675]	[ 90 570 405 675]
58.617	6.0	2590992	2597630	ShowFixation	VGS	11	1	True	lime	180	[405 885 405 675]	[1035 1515  405  675]
65.255	0.2	2597630	2597869	BlankScreen	VGS	11	1	True	lime	180	[405 885 405 675]	[1035 1515  405  675]
65.494	1.0	2597869	2598910	ELCue	VGS	11	1	True	lime	180	[405 885 405 675]	[1035 1515  405  675]
66.94	2.0	2599315	2601955	ShowFixation	ANTI	12	1	True	red	600	[ 90 570 405 675]	[1350 1830  405  675]
69.58	0.2	2601955	2602190	BlankScreen	ANTI	12	1	True	red	600	[ 90 570 405 675]	[1350 1830  405  675]
69.815	1.0	2602190	2603231	ELCue	ANTI	12	1	True	red	600	[ 90 570 405 675]	[1350 1830  405  675]
71.264	2.0	2603639	2606276	ShowFixation	ANTI	13	1	True	red	460	[405 885 405 675]	[1035 1515  405  675]
73.901	0.2	2606276	2606511	BlankScreen	ANTI	13	1	True	red	460	[405 885 405 675]	[1035 1515  405  675]
74.136	1.0	2606511	2607552	ELCue	ANTI	13	1	True	red	460	[405 885 405 675]	[1035 1515  405  675]
75.586	6.0	2607961	2614580	ShowFixation	VGS	14	1	True	lime	600	[1350 1830  405  675]	[ 90 570 405 675]
82.205	0.2	2614580	2614820	BlankScreen	VGS	14	1	True	lime	600	[1350 1830  405  675]	[ 90 570 405 675]
82.445	1.0	2614820	2615859	ELCue	VGS	14	1	True	lime	600	[1350 1830  405  675]	[ 90 570 405 675]
83.891	6.0	2616266	2622888	ShowFixation	ANTI	15	1	True	red	600	[ 90 570 405 675]	[1350 1830  405  675]
90.513	0.2	2622888	2623128	BlankScreen	ANTI	15	1	True	red	600	[ 90 570 405 675]	[1350 1830  405  675]
90.753	1.0	2623128	2624168	ELCue	ANTI	15	1	True	red	600	[ 90 570 405 675]	[1350 1830  405  675]
92.201	6.0	2624576	2631213	ShowFixation	VGS	16	1	True	lime	460	[1035 1515  405  675]	[405 885 405 675]
98.838	0.2	2631213	2631453	BlankScreen	VGS	16	1	True	lime	460	[1035 1515  405  675]	[405 885 405 675]
99.078	1.0	2631453	2632493	ELCue	VGS	16	1	True	lime	460	[1035 1515  405  675]	[405 885 405 675]
107.678	2.0	2640053	2642078	ShowFixation	ANTI	17	2	False	red	460	[405 885 405 675]	[1035 1515  405  675]
109.703	0.2	2642078	2642313	BlankScreen	ANTI	17	2	False	red	460	[405 885 405 675]	[1035 1515  405  675]
109.938	1.0	2642313	2643313	ELCue	ANTI	17	2	False	red	460	[405 885 405 675]	[1035 1515  405  675]
111.348	2.0	2643723	2645748	ShowFixation	ANTI	18	2	False	red	600	[ 90 570 405 675]	[1350 1830  405  675]
113.373	0.2	2645748	2645984	BlankScreen	ANTI	18	2	False	red	600	[ 90 570 405 675]	[1350 1830  405  675]
113.609	1.0	2645984	2646984	ELCue	ANTI	18	2	False	red	600	[ 90 570 405 675]	[1350 1830  405  675]
115.017	2.0	2647392	2649419	ShowFixation	VGS	19	2	False	lime	180	[405 885 405 675]	[1035 1515  405  675]
117.044	0.2	2649419	2649654	BlankScreen	VGS	19	2	False	lime	180	[405 885 405 675]	[1035 1515  405  675]
117.279	1.0	2649654	2650654	ELCue	VGS	19	2	False	lime	180	[405 885 405 675]	[1035 1515  405  675]
118.683	2.0	2651058	2653089	ShowFixation	VGS	20	2	False	lime	460	[1035 1515  405  675]	[405 885 405 675]
120.714	0.2	2653089	2653324	BlankScreen	VGS	20	2	False	lime	460	[1035 1515  405  675]	[405 885 405 675]
120.949	1.0	2653324	2654324	ELCue	VGS	20	2	False	lime	460	[1035 1515  405  675]	[405 885 405 675]
122.357	2.0	2654732	2656759	ShowFixation	VGS	21	2	False	lime	40	[ 90 570 405 675]	[1350 1830  405  675]
124.384	0.2	2656759	2656994	BlankScreen	VGS	21	2	False	lime	40	[ 90 570 405 675]	[1350 1830  405  675]
124.619	1.0	2656994	2657994	ELCue	VGS	21	2	False	lime	40	[ 90 570 405 675]	[1350 1830  405  675]
126.028	6.0	2658403	2664429	ShowFixation	ANTI	22	2	False	red	460	[405 885 405 675]	[1035 1515  405  675]
132.054	0.2	2664429	2664669	BlankScreen	ANTI	22	2	False	red	460	[405 885 405 675]	[1035 1515  405  675]
132.294	1.0	2664669	2665669	ELCue	ANTI	22	2	False	red	460	[405 885 405 675]	[1035 1515  405  675]
133.705	2.0	2666080	2668120	ShowFixation	ANTI	23	2	False	red	40	[1350 1830  405  675]	[ 90 570 405 675]
135.745	0.2	2668120	2668356	BlankScreen	ANTI	23	2	False	red	40	[1350 1830  405  675]	[ 90 570 405 675]
135.981	1.0	2668356	2669356	ELCue	ANTI	23	2	False	red	40	[1350 1830  405  675]	[ 90 570 405 675]
137.384	6.0	2669759	2675791	ShowFixation	ANTI	24	2	False	red	460	[405 885 405 675]	[1035 1515  405  675]
143.416	0.2	2675791	2676030	BlankScreen	ANTI	24	2	False	red	460	[405 885 405 675]	[1035 1515  405  675]
143.656	1.0	2676031	2677031	ELCue	ANTI	24	2	False	red	460	[405 885 405 675]	[1035 1515  405  675]
145.059	2.0	2677434	2679465	ShowFixation	VGS	25	2	False	lime	180	[405 885 405 675]	[1035 1515  405  675]
147.09	0.2	2679465	2679700	BlankScreen	VGS	25	2	False	lime	180	[405 885 405 675]	[1035 1515  405  675]
147.325	1.0	2679700	2680700	ELCue	VGS	25	2	False	lime	180	[405 885 405 675]	[1035 1515  405  675]
148.701	2.0	2681076	2683102	ShowFixation	VGS	26	2	False	lime	460	[1035 1515  405  675]	[405 885 405 675]
150.728	0.2	2683103	2683337	BlankScreen	VGS	26	2	False	lime	460	[1035 1515  405  675]	[405 885 405 675]
150.963	1.0	2683338	2684338	ELCue	VGS	26	2	False	lime	460	[1035 1515  405  675]	[405 885 405 675]
152.371	6.0	2684746	2690773	ShowFixation	VGS	27	2	False	lime	460	[1035 1515  405  675]	[405 885 405 675]
158.398	0.2	2690773	2691012	BlankScreen	VGS	27	2	False	lime	460	[1035 1515  405  675]	[405 885 405 675]
158.637	1.0	2691012	2692012	ELCue	VGS	27	2	False	lime	460	[1035 1515  405  675]	[405 885 405 675]
160.048	6.0	2692423	2698464	ShowFixation	ANTI	28	2	False	red	600	[ 90 570 405 675]	[1350 1830  405  675]
166.089	0.2	2698464	2698703	BlankScreen	ANTI	28	2	False	red	600	[ 90 570 405 675]	[1350 1830  405  675]
166.328	1.0	2698703	2699703	ELCue	ANTI	28	2	False	red	600	[ 90 570 405 675]	[1350 1830  405  675]
167.735	6.0	2700110	2706138	ShowFixation	VGS	29	2	False	lime	40	[ 90 570 405 675]	[1350 1830  405  675]
173.763	0.2	2706138	2706377	BlankScreen	VGS	29	2	False	lime	40	[ 90 570 405 675]	[1350 1830  405  675]
174.002	1.0	2706377	2707377	ELCue	VGS	29	2	False	lime	40	[ 90 570 405 675]	[1350 1830  405  675]
175.413	6.0	2707788	2713812	ShowFixation	ANTI	30	2	False	red	40	[1350 1830  405  675]	[ 90 570 405 675]
181.437	0.2	2713812	2714052	BlankScreen	ANTI	30	2	False	red	40	[1350 1830  405  675]	[ 90 570 405 675]
181.677	1.0	2714052	2715052	ELCue	ANTI	30	2	False	red	40	[1350 1830  405  675]	[ 90 570 405 675]
183.086	2.0	2715461	2717487	ShowFixation	VGS	31	2	False	lime	40	[ 90 570 405 675]	[1350 1830  405  675]
185.112	0.2	2717487	2717722	BlankScreen	VGS	31	2	False	lime	40	[ 90 570 405 675]	[1350 1830  405  675]
185.347	1.0	2717722	2718722	ELCue	VGS	31	2	False	lime	40	[ 90 570 405 675]	[1350 1830  405  675]
186.761	2.0	2719136	2721174	ShowFixation	ANTI	32	2	False	red	460	[405 885 405 675]	[1035 1515  405  675]
188.799	0.2	2721174	2721409	BlankScreen	ANTI	32	2	False	red	460	[405 885 405 675]	[1035 1515  405  675]
189.034	1.0	2721409	2722409	ELCue	ANTI	32	2	False	red	460	[405 885 405 675]	[1035 1515  405  675]
190.443	6.0	2722818	2728844	ShowFixation	VGS	33	2	False	lime	460	[1035 1515  405  675]	[405 885 405 675]
196.469	0.2	2728844	2729083	BlankScreen	VGS	33	2	False	lime	460	[1035 1515  405  675]	[405 885 405 675]
196.708	1.0	2729083	2730083	ELCue	VGS	33	2	False	lime	460	[1035 1515  405  675]	[405 885 405 675]
198.117	6.0	2730492	2736518	ShowFixation	VGS	34	2	False	lime	180	[405 885 405 675]	[1035 1515  405  675]
204.143	0.2	2736518	2736757	BlankScreen	VGS	34	2	False	lime	180	[405 885 405 675]	[1035 1515  405  675]
204.382	1.0	2736757	2737757	ELCue	VGS	34	2	False	lime	180	[405 885 405 675]	[1035 1515  405  675]
205.795	6.0	2738170	2744209	ShowFixation	VGS	35	2	False	lime	40	[ 90 570 405 675]	[1350 1830  405  675]
211.834	0.2	2744209	2744448	BlankScreen	VGS	35	2	False	lime	40	[ 90 570 405 675]	[1350 1830  405  675]
212.073	1.0	2744448	2745448	ELCue	VGS	35	2	False	lime	40	[ 90 570 405 675]	[1350 1830  405  675]
213.478	6.0	2745853	2751883	ShowFixation	ANTI	36	2	False	red	180	[1035 1515  405  675]	[405 885 405 675]
219.508	0.2	2751883	2752123	BlankScreen	ANTI	36	2	False	red	180	[1035 1515  405  675]	[405 885 405 675]
219.748	1.0	2752123	2753123	ELCue	ANTI	36	2	False	red	180	[1035 1515  405  675]	[405 885 405 675]
221.153	6.0	2753528	2759558	ShowFixation	ANTI	37	2	False	red	40	[1350 1830  405  675]	[ 90 570 405 675]
227.183	0.2	2759558	2759797	BlankScreen	ANTI	37	2	False	red	40	[1350 1830  405  675]	[ 90 570 405 675]
227.422	1.0	2759797	2760797	ELCue	ANTI	37	2	False	red	40	[1350 1830  405  675]	[ 90 570 405 675]
228.83	6.0	2761205	2767232	ShowFixation	VGS	38	2	False	lime	180	[405 885 405 675]	[1035 1515  405  675]
234.857	0.2	2767232	2767471	BlankScreen	VGS	38	2	False	lime	180	[405 885 405 675]	[1035 1515  405  675]
235.096	1.0	2767471	2768471	ELCue	VGS	38	2	False	lime	180	[405 885 405 675]	[1035 1515  405  675]
236.507	2.0	2768882	2770923	ShowFixation	ANTI	39	2	False	red	600	[ 90 570 405 675]	[1350 1830  405  675]
238.548	0.2	2770923	2771158	BlankScreen	ANTI	39	2	False	red	600	[ 90 570 405 675]	[1350 1830  405  675]
238.783	1.0	2771158	2772158	ELCue	ANTI	39	2	False	red	600	[ 90 570 405 675]	[1350 1830  405  675]
240.193	2.0	2772568	2774593	ShowFixation	ANTI	40	2	False	red	40	[1350 1830  405  675]	[ 90 570 405 675]
242.218	0.2	2774593	2774828	BlankScreen	ANTI	40	2	False	red	40	[1350 1830  405  675]	[ 90 570 405 675]
242.453	1.0	2774828	2775828	ELCue	ANTI	40	2	False	red	40	[1350 1830  405  675]	[ 90 570 405 675]
243.864	6.0	2776239	2782280	ShowFixation	ANTI	41	2	False	red	600	[ 90 570 405 675]	[1350 1830  405  675]
249.906	0.2	2782281	2782519	BlankScreen	ANTI	41	2	False	red	600	[ 90 570 405 675]	[1350 1830  405  675]
250.144	1.0	2782519	2783519	ELCue	ANTI	41	2	False	red	600	[ 90 570 405 675]	[1350 1830  405  675]
251.554	2.0	2783929	2785954	ShowFixation	ANTI	42	2	False	red	180	[1035 1515  405  675]	[405 885 405 675]
253.579	0.2	2785954	2786190	BlankScreen	ANTI	42	2	False	red	180	[1035 1515  405  675]	[405 885 405 675]
253.815	1.0	2786190	2787190	ELCue	ANTI	42	2	False	red	180	[1035 1515  405  675]	[405 885 405 675]
255.224	2.0	2787599	2789624	ShowFixation	VGS	43	2	False	lime	600	[1350 1830  405  675]	[ 90 570 405 675]
257.249	0.2	2789624	2789860	BlankScreen	VGS	43	2	False	lime	600	[1350 1830  405  675]	[ 90 570 405 675]
257.486	1.0	2789861	2790861	ELCue	VGS	43	2	False	lime	600	[1350 1830  405  675]	[ 90 570 405 675]
258.887	6.0	2791262	2797295	ShowFixation	VGS	44	2	False	lime	600	[1350 1830  405  675]	[ 90 570 405 675]
264.921	0.2	2797296	2797535	BlankScreen	VGS	44	2	False	lime	600	[1350 1830  405  675]	[ 90 570 405 675]
265.16	1.0	2797535	2798535	ELCue	VGS	44	2	False	lime	600	[1350 1830  405  675]	[ 90 570 405 675]
266.563	6.0	2798938	2804970	ShowFixation	VGS	45	2	False	lime	600	[1350 1830  405  675]	[ 90 570 405 675]
272.595	0.2	2804970	2805209	BlankScreen	VGS	45	2	False	lime	600	[1350 1830  405  675]	[ 90 570 405 675]
272.834	1.0	2805209	2806209	ELCue	VGS	45	2	False	lime	600	[1350 1830  405  675]	[ 90 570 405 675]
274.243	2.0	2806618	2808644	ShowFixation	VGS	46	2	False	lime	600	[1350 1830  405  675]	[ 90 570 405 675]
276.269	0.2	2808644	2808880	BlankScreen	VGS	46	2	False	lime	600	[1350 1830  405  675]	[ 90 570 405 675]
276.505	1.0	2808880	2809880	ELCue	VGS	46	2	False	lime	600	[1350 1830  405  675]	[ 90 570 405 675]
277.886	2.0	2810261	2812298	ShowFixation	ANTI	47	2	False	red	180	[1035 1515  405  675]	[405 885 405 675]
279.923	0.2	2812298	2812533	BlankScreen	ANTI	47	2	False	red	180	[1035 1515  405  675]	[405 885 405 675]
280.158	1.0	2812533	2813533	ELCue	ANTI	47	2	False	red	180	[1035 1515  405  675]	[405 885 405 675]
281.572	6.0	2813947	2819985	ShowFixation	ANTI	48	2	False	red	180	[1035 1515  405  675]	[405 885 405 675]
287.61	0.2	2819985	2820224	BlankScreen	ANTI	48	2	False	red	180	[1035 1515  405  675]	[405 885 405 675]
287.849	1.0	2820224	2821224	ELCue	ANTI	48	2	False	red	180	[1035 1515  405  675]	[405 885 405 675]
309.648	6.0	2842023	2848063	ShowFixation	VGS	49	3	False	lime	600	[1350 1830  405  675]	[ 90 570 405 675]
315.688	0.2	2848063	2848302	BlankScreen	VGS	49	3	False	lime	600	[1350 1830  405  675]	[ 90 570 405 675]
315.927	1.0	2848302	2849302	ELCue	VGS	49	3	False	lime	600	[1350 1830  405  675]	[ 90 570 405 675]
317.337	2.0	2849712	2851737	ShowFixation	ANTI	50	3	False	red	600	[ 90 570 405 675]	[1350 1830  405  675]
319.362	0.2	2851737	2851972	BlankScreen	ANTI	50	3	False	red	600	[ 90 570 405 675]	[1350 1830  405  675]
319.597	1.0	2851972	2852972	ELCue	ANTI	50	3	False	red	600	[ 90 570 405 675]	[1350 1830  405  675]
321.006	6.0	2853381	2859407	ShowFixation	ANTI	51	3	False	red	40	[1350 1830  405  675]	[ 90 570 405 675]
327.032	0.2	2859407	2859646	BlankScreen	ANTI	51	3	False	red	40	[1350 1830  405  675]	[ 90 570 405 675]
327.271	1.0	2859646	2860646	ELCue	ANTI	51	3	False	red	40	[1350 1830  405  675]	[ 90 570 405 675]
328.679	6.0	2861054	2867081	ShowFixation	VGS	52	3	False	lime	40	[ 90 570 405 675]	[1350 1830  405  675]
334.706	0.2	2867081	2867321	BlankScreen	VGS	52	3	False	lime	40	[ 90 570 405 675]	[1350 1830  405  675]
334.946	1.0	2867321	2868321	ELCue	VGS	52	3	False	lime	40	[ 90 570 405 675]	[1350 1830  405  675]
336.356	2.0	2868731	2870755	ShowFixation	ANTI	53	3	False	red	460	[405 885 405 675]	[1035 1515  405  675]
338.38	0.2	2870755	2870991	BlankScreen	ANTI	53	3	False	red	460	[405 885 405 675]	[1035 1515  405  675]
338.616	1.0	2870991	2871991	ELCue	ANTI	53	3	False	red	460	[405 885 405 675]	[1035 1515  405  675]
340.025	6.0	2872400	2878426	ShowFixation	VGS	54	3	False	lime	180	[405 885 405 675]	[1035 1515  405  675]
346.051	0.2	2878426	2878665	BlankScreen	VGS	54	3	False	lime	180	[405 885 405 675]	[1035 1515  405  675]
346.29	1.0	2878665	2879665	ELCue	VGS	54	3	False	lime	180	[405 885 405 675]	[1035 1515  405  675]
347.705	6.0	2880080	2886117	ShowFixation	VGS	55	3	False	lime	600	[1350 1830  405  675]	[ 90 570 405 675]
353.742	0.2	2886117	2886356	BlankScreen	VGS	55	3	False	lime	600	[1350 1830  405  675]	[ 90 570 405 675]
353.981	1.0	2886356	2887356	ELCue	VGS	55	3	False	lime	600	[1350 1830  405  675]	[ 90 570 405 675]
355.393	6.0	2887768	2893808	ShowFixation	ANTI	56	3	False	red	40	[1350 1830  405  675]	[ 90 570 405 675]
361.433	0.2	2893808	2894047	BlankScreen	ANTI	56	3	False	red	40	[1350 1830  405  675]	[ 90 570 405 675]
361.672	1.0	2894047	2895047	ELCue	ANTI	56	3	False	red	40	[1350 1830  405  675]	[ 90 570 405 675]
363.076	2.0	2895451	2897482	ShowFixation	ANTI	57	3	False	red	600	[ 90 570 405 675]	[1350 1830  405  675]
365.108	0.2	2897483	2897717	BlankScreen	ANTI	57	3	False	red	600	[ 90 570 405 675]	[1350 1830  405  675]
365.342	1.0	2897717	2898717	ELCue	ANTI	57	3	False	red	600	[ 90 570 405 675]	[1350 1830  405  675]
366.747	6.0	2899122	2905152	ShowFixation	ANTI	58	3	False	red	600	[ 90 570 405 675]	[1350 1830  405  675]
372.778	0.2	2905153	2905392	BlankScreen	ANTI	58	3	False	red	600	[ 90 570 405 675]	[1350 1830  405  675]
373.017	1.0	2905392	2906392	ELCue	ANTI	58	3	False	red	600	[ 90 570 405 675]	[1350 1830  405  675]
374.424	6.0	2906799	2912827	ShowFixation	VGS	59	3	False	lime	40	[ 90 570 405 675]	[1350 1830  405  675]
380.452	0.2	2912827	2913067	BlankScreen	VGS	59	3	False	lime	40	[ 90 570 405 675]	[1350 1830  405  675]
380.692	1.0	2913067	2914067	ELCue	VGS	59	3	False	lime	40	[ 90 570 405 675]	[1350 1830  405  675]
382.098	2.0	2914473	2916502	ShowFixation	ANTI	60	3	False	red	180	[1035 1515  405  675]	[405 885 405 675]
384.127	0.2	2916502	2916737	BlankScreen	ANTI	60	3	False	red	180	[1035 1515  405  675]	[405 885 405 675]
384.362	1.0	2916737	2917737	ELCue	ANTI	60	3	False	red	180	[1035 1515  405  675]	[405 885 405 675]
385.773	2.0	2918148	2920189	ShowFixation	VGS	61	3	False	lime	600	[1350 1830  405  675]	[ 90 570 405 675]
387.814	0.2	2920189	2920424	BlankScreen	VGS	61	3	False	lime	600	[1350 1830  405  675]	[ 90 570 405 675]
388.049	1.0	2920424	2921424	ELCue	VGS	61	3	False	lime	600	[1350 1830  405  675]	[ 90 570 405 675]
389.461	2.0	2921836	2923876	ShowFixation	ANTI	62	3	False	red	40	[1350 1830  405  675]	[ 90 570 405 675]
391.501	0.2	2923876	2924111	BlankScreen	ANTI	62	3	False	red	40	[1350 1830  405  675]	[ 90 570 405 675]
391.736	1.0	2924111	2925111	ELCue	ANTI	62	3	False	red	40	[1350 1830  405  675]	[ 90 570 405 675]
393.142	2.0	2925517	2927546	ShowFixation	ANTI	63	3	False	red	180	[1035 1515  405  675]	[405 885 405 675]
395.171	0.2	2927546	2927781	BlankScreen	ANTI	63	3	False	red	180	[1035 1515  405  675]	[405 885 405 675]
395.406	1.0	2927781	2928781	ELCue	ANTI	63	3	False	red	180	[1035 1515  405  675]	[405 885 405 675]
396.818	2.0	2929193	2931233	ShowFixation	VGS	64	3	False	lime	40	[ 90 570 405 675]	[1350 1830  405  675]
398.858	0.2	2931233	2931468	BlankScreen	VGS	64	3	False	lime	40	[ 90 570 405 675]	[1350 1830  405  675]
399.093	1.0	2931468	2932468	ELCue	VGS	64	3	False	lime	40	[ 90 570 405 675]	[1350 1830  405  675]
400.507	2.0	2932882	2934920	ShowFixation	VGS	65	3	False	lime	460	[1035 1515  405  675]	[405 885 405 675]
402.545	0.2	2934920	2935155	BlankScreen	VGS	65	3	False	lime	460	[1035 1515  405  675]	[405 885 405 675]
402.78	1.0	2935155	2936155	ELCue	VGS	65	3	False	lime	460	[1035 1515  405  675]	[405 885 405 675]
404.191	6.0	2936566	2942607	ShowFixation	ANTI	66	3	False	red	460	[405 885 405 675]	[1035 1515  405  675]
410.232	0.2	2942607	2942846	BlankScreen	ANTI	66	3	False	red	460	[405 885 405 675]	[1035 1515  405  675]
410.471	1.0	2942846	2943846	ELCue	ANTI	66	3	False	red	460	[405 885 405 675]	[1035 1515  405  675]
411.881	2.0	2944256	2946281	ShowFixation	VGS	67	3	False	lime	180	[405 885 405 675]	[1035 1515  405  675]
413.906	0.2	2946281	2946516	BlankScreen	VGS	67	3	False	lime	180	[405 885 405 675]	[1035 1515  405  675]
414.141	1.0	2946516	2947516	ELCue	VGS	67	3	False	lime	180	[405 885 405 675]	[1035 1515  405  675]
415.553	2.0	2947928	2949968	ShowFixation	VGS	68	3	False	lime	600	[1350 1830  405  675]	[ 90 570 405 675]
417.593	0.2	2949968	2950203	BlankScreen	VGS	68	3	False	lime	600	[1350 1830  405  675]	[ 90 570 405 675]
417.828	1.0	2950203	2951203	ELCue	VGS	68	3	False	lime	600	[1350 1830  405  675]	[ 90 570 405 675]
419.222	6.0	2951597	2957638	ShowFixation	ANTI	69	3	False	red	180	[1035 1515  405  675]	[405 885 405 675]
425.263	0.2	2957638	2957878	BlankScreen	ANTI	69	3	False	red	180	[1035 1515  405  675]	[405 885 405 675]
425.503	1.0	2957878	2958878	ELCue	ANTI	69	3	False	red	180	[1035 1515  405  675]	[405 885 405 675]
426.911	6.0	2959286	2965312	ShowFixation	ANTI	70	3	False	red	180	[1035 1515  405  675]	[405 885 405 675]
432.937	0.2	2965312	2965552	BlankScreen	ANTI	70	3	False	red	180	[1035 1515  405  675]	[405 885 405 675]
433.177	1.0	2965552	2966552	ELCue	ANTI	70	3	False	red	180	[1035 1515  405  675]	[405 885 405 675]
434.58	2.0	2966955	2968987	ShowFixation	VGS	71	3	False	lime	460	[1035 1515  405  675]	[405 885 405 675]
436.612	0.2	2968987	2969222	BlankScreen	VGS	71	3	False	lime	460	[1035 1515  405  675]	[405 885 405 675]
436.847	1.0	2969222	2970222	ELCue	VGS	71	3	False	lime	460	[1035 1515  405  675]	[405 885 405 675]
438.258	6.0	2970633	2976674	ShowFixation	VGS	72	3	False	lime	460	[1035 1515  405  675]	[405 885 405 675]
444.299	0.2	2976674	2976913	BlankScreen	VGS	72	3	False	lime	460	[1035 1515  405  675]	[405 885 405 675]
444.538	1.0	2976913	2977913	ELCue	VGS	72	3	False	lime	460	[1035 1515  405  675]	[405 885 405 675]
445.952	2.0	2978327	2980365	ShowFixation	ANTI	73	3	False	red	40	[1350 1830  405  675]	[ 90 570 405 675]
447.99	0.2	2980365	2980600	BlankScreen	ANTI	73	3	False	red	40	[1350 1830  405  675]	[ 90 570 405 675]
448.225	1.0	2980600	2981600	ELCue	ANTI	73	3	False	red	40	[1350 1830  405  675]	[ 90 570 405 675]
449.633	6.0	2982008	2988035	ShowFixation	VGS	74	3	False	lime	180	[405 885 405 675]	[1035 1515  405  675]
455.66	0.2	2988035	2988274	BlankScreen	VGS	74	3	False	lime	180	[405 885 405 675]	[1035 1515  405  675]
455.899	1.0	2988274	2989274	ELCue	VGS	74	3	False	lime	180	[405 885 405 675]	[1035 1515  405  675]
457.308	6.0	2989683	2995709	ShowFixation	ANTI	75	3	False	red	460	[405 885 405 675]	[1035 1515  405  675]
463.334	0.2	2995709	2995948	BlankScreen	ANTI	75	3	False	red	460	[405 885 405 675]	[1035 1515  405  675]
463.573	1.0	2995948	2996948	ELCue	ANTI	75	3	False	red	460	[405 885 405 675]	[1035 1515  405  675]
464.984	2.0	2997359	2999400	ShowFixation	VGS	76	3	False	lime	40	[ 90 570 405 675]	[1350 1830  405  675]
467.025	0.2	2999400	2999635	BlankScreen	VGS	76	3	False	lime	40	[ 90 570 405 675]	[1350 1830  405  675]
467.26	1.0	2999635	3000635	ELCue	VGS	76	3	False	lime	40	[ 90 570 405 675]	[1350 1830  405  675]
468.705	6.0	3001080	3007121	ShowFixation	VGS	77	3	False	lime	460	[1035 1515  405  675]	[405 885 405 675]
474.746	0.2	3007121	3007361	BlankScreen	VGS	77	3	False	lime	460	[1035 1515  405  675]	[405 885 405 675]
474.986	1.0	3007361	3008361	ELCue	VGS	77	3	False	lime	460	[1035 1515  405  675]	[405 885 405 675]
476.394	2.0	3008769	3010795	ShowFixation	VGS	78	3	False	lime	180	[405 885 405 675]	[1035 1515  405  675]
478.42	0.2	3010795	3011031	BlankScreen	VGS	78	3	False	lime	180	[405 885 405 675]	[1035 1515  405  675]
478.656	1.0	3011031	3012031	ELCue	VGS	78	3	False	lime	180	[405 885 405 675]	[1035 1515  405  675]
480.063	2.0	3012438	3014465	ShowFixation	ANTI	79	3	False	red	460	[405 885 405 675]	[1035 1515  405  675]
482.09	0.2	3014465	3014700	BlankScreen	ANTI	79	3	False	red	460	[405 885 405 675]	[1035 1515  405  675]
482.325	1.0	3014700	3015700	ELCue	ANTI	79	3	False	red	460	[405 885 405 675]	[1035 1515  405  675]
483.735	6.0	3016110	3022135	ShowFixation	ANTI	80	3	False	red	600	[ 90 570 405 675]	[1350 1830  405  675]
489.761	0.2	3022136	3022374	BlankScreen	ANTI	80	3	False	red	600	[ 90 570 405 675]	[1350 1830  405  675]
489.999	1.0	3022374	3023374	ELCue	ANTI	80	3	False	red	600	[ 90 570 405 675]	[1350 1830  405  675]
497.786	6.0	3030161	3036200	ShowFixation	VGS	81	4	False	lime	600	[1350 1830  405  675]	[ 90 570 405 675]
503.825	0.2	3036200	3036439	BlankScreen	VGS	81	4	False	lime	600	[1350 1830  405  675]	[ 90 570 405 675]
504.064	1.0	3036439	3037439	ELCue	VGS	81	4	False	lime	600	[1350 1830  405  675]	[ 90 570 405 675]
505.468	6.0	3037843	3043874	ShowFixation	ANTI	82	4	False	red	40	[1350 1830  405  675]	[ 90 570 405 675]
511.499	0.2	3043874	3044114	BlankScreen	ANTI	82	4	False	red	40	[1350 1830  405  675]	[ 90 570 405 675]
511.739	1.0	3044114	3045114	ELCue	ANTI	82	4	False	red	40	[1350 1830  405  675]	[ 90 570 405 675]
513.147	2.0	3045522	3047549	ShowFixation	VGS	83	4	False	lime	460	[1035 1515  405  675]	[405 885 405 675]
515.174	0.2	3047549	3047784	BlankScreen	VGS	83	4	False	lime	460	[1035 1515  405  675]	[405 885 405 675]
515.409	1.0	3047784	3048784	ELCue	VGS	83	4	False	lime	460	[1035 1515  405  675]	[405 885 405 675]
516.815	6.0	3049190	3055219	ShowFixation	ANTI	84	4	False	red	460	[405 885 405 675]	[1035 1515  405  675]
522.844	0.2	3055219	3055458	BlankScreen	ANTI	84	4	False	red	460	[405 885 405 675]	[1035 1515  405  675]
523.083	1.0	3055458	3056458	ELCue	ANTI	84	4	False	red	460	[405 885 405 675]	[1035 1515  405  675]
524.494	2.0	3056869	3058910	ShowFixation	ANTI	85	4	False	red	180	[1035 1515  405  675]	[405 885 405 675]
526.535	0.2	3058910	3059145	BlankScreen	ANTI	85	4	False	red	180	[1035 1515  405  675]	[405 885 405 675]
526.77	1.0	3059145	3060145	ELCue	ANTI	85	4	False	red	180	[1035 1515  405  675]	[405 885 405 675]
528.159	6.0	3060534	3066563	ShowFixation	VGS	86	4	False	lime	40	[ 90 570 405 675]	[1350 1830  405  675]
534.188	0.2	3066563	3066803	BlankScreen	VGS	86	4	False	lime	40	[ 90 570 405 675]	[1350 1830  405  675]
534.428	1.0	3066803	3067803	ELCue	VGS	86	4	False	lime	40	[ 90 570 405 675]	[1350 1830  405  675]
535.837	2.0	3068212	3070238	ShowFixation	ANTI	87	4	False	red	600	[ 90 570 405 675]	[1350 1830  405  675]
537.863	0.2	3070238	3070473	BlankScreen	ANTI	87	4	False	red	600	[ 90 570 405 675]	[1350 1830  405  675]
538.098	1.0	3070473	3071473	ELCue	ANTI	87	4	False	red	600	[ 90 570 405 675]	[1350 1830  405  675]
539.508	6.0	3071883	3077908	ShowFixation	ANTI	88	4	False	red	460	[405 885 405 675]	[1035 1515  405  675]
545.533	0.2	3077908	3078147	BlankScreen	ANTI	88	4	False	red	460	[405 885 405 675]	[1035 1515  405  675]
545.772	1.0	3078147	3079147	ELCue	ANTI	88	4	False	red	460	[405 885 405 675]	[1035 1515  405  675]
547.186	2.0	3079561	3081599	ShowFixation	ANTI	89	4	False	red	600	[ 90 570 405 675]	[1350 1830  405  675]
549.224	0.2	3081599	3081834	BlankScreen	ANTI	89	4	False	red	600	[ 90 570 405 675]	[1350 1830  405  675]
549.459	1.0	3081834	3082834	ELCue	ANTI	89	4	False	red	600	[ 90 570 405 675]	[1350 1830  405  675]
550.868	2.0	3083243	3085269	ShowFixation	ANTI	90	4	False	red	40	[1350 1830  405  675]	[ 90 570 405 675]
552.894	0.2	3085269	3085504	BlankScreen	ANTI	90	4	False	red	40	[1350 1830  405  675]	[ 90 570 405 675]
553.129	1.0	3085504	3086504	ELCue	ANTI	90	4	False	red	40	[1350 1830  405  675]	[ 90 570 405 675]
554.542	2.0	3086917	3088956	ShowFixation	ANTI	91	4	False	red	460	[405 885 405 675]	[1035 1515  405  675]
556.581	0.2	3088956	3089191	BlankScreen	ANTI	91	4	False	red	460	[405 885 405 675]	[1035 1515  405  675]
556.816	1.0	3089191	3090191	ELCue	ANTI	91	4	False	red	460	[405 885 405 675]	[1035 1515  405  675]
558.228	2.0	3090603	3092643	ShowFixation	ANTI	92	4	False	red	180	[1035 1515  405  675]	[405 885 405 675]
560.268	0.2	3092643	3092878	BlankScreen	ANTI	92	4	False	red	180	[1035 1515  405  675]	[405 885 405 675]
560.503	1.0	3092878	3093878	ELCue	ANTI	92	4	False	red	180	[1035 1515  405  675]	[405 885 405 675]
561.908	2.0	3094283	3096313	ShowFixation	VGS	93	4	False	lime	180	[405 885 405 675]	[1035 1515  405  675]
563.938	0.2	3096313	3096549	BlankScreen	VGS	93	4	False	lime	180	[405 885 405 675]	[1035 1515  405  675]
564.174	1.0	3096549	3097549	ELCue	VGS	93	4	False	lime	180	[405 885 405 675]	[1035 1515  405  675]
565.583	6.0	3097958	3103984	ShowFixation	ANTI	94	4	False	red	600	[ 90 570 405 675]	[1350 1830  405  675]
571.609	0.2	3103984	3104223	BlankScreen	ANTI	94	4	False	red	600	[ 90 570 405 675]	[1350 1830  405  675]
571.848	1.0	3104223	3105223	ELCue	ANTI	94	4	False	red	600	[ 90 570 405 675]	[1350 1830  405  675]
573.259	6.0	3105634	3111674	ShowFixation	VGS	95	4	False	lime	460	[1035 1515  405  675]	[405 885 405 675]
579.299	0.2	3111674	3111914	BlankScreen	VGS	95	4	False	lime	460	[1035 1515  405  675]	[405 885 405 675]
579.539	1.0	3111914	3112914	ELCue	VGS	95	4	False	lime	460	[1035 1515  405  675]	[405 885 405 675]
580.949	6.0	3113324	3119349	ShowFixation	VGS	96	4	False	lime	180	[405 885 405 675]	[1035 1515  405  675]
586.974	0.2	3119349	3119588	BlankScreen	VGS	96	4	False	lime	180	[405 885 405 675]	[1035 1515  405  675]
587.213	1.0	3119588	3120588	ELCue	VGS	96	4	False	lime	180	[405 885 405 675]	[1035 1515  405  675]
588.621	6.0	3120996	3127023	ShowFixation	VGS	97	4	False	lime	180	[405 885 405 675]	[1035 1515  405  675]
594.648	0.2	3127023	3127262	BlankScreen	VGS	97	4	False	lime	180	[405 885 405 675]	[1035 1515  405  675]
594.887	1.0	3127262	3128262	ELCue	VGS	97	4	False	lime	180	[405 885 405 675]	[1035 1515  405  675]
596.296	6.0	3128671	3134698	ShowFixation	VGS	98	4	False	lime	460	[1035 1515  405  675]	[405 885 405 675]
602.323	0.2	3134698	3134936	BlankScreen	VGS	98	4	False	lime	460	[1035 1515  405  675]	[405 885 405 675]
602.561	1.0	3134936	3135936	ELCue	VGS	98	4	False	lime	460	[1035 1515  405  675]	[405 885 405 675]
603.973	2.0	3136348	3138389	ShowFixation	VGS	99	4	False	lime	460	[1035 1515  405  675]	[405 885 405 675]
606.014	0.2	3138389	3138624	BlankScreen	VGS	99	4	False	lime	460	[1035 1515  405  675]	[405 885 405 675]
606.249	1.0	3138624	3139624	ELCue	VGS	99	4	False	lime	460	[1035 1515  405  675]	[405 885 405 675]
607.643	2.0	3140018	3142043	ShowFixation	ANTI	100	4	False	red	40	[1350 1830  405  675]	[ 90 570 405 675]
609.668	0.2	3142043	3142278	BlankScreen	ANTI	100	4	False	red	40	[1350 1830  405  675]	[ 90 570 405 675]
609.903	1.0	3142278	3143278	ELCue	ANTI	100	4	False	red	40	[1350 1830  405  675]	[ 90 570 405 675]
611.31	6.0	3143685	3149713	ShowFixation	VGS	101	4	False	lime	40	[ 90 570 405 675]	[1350 1830  405  675]
617.338	0.2	3149713	3149952	BlankScreen	VGS	101	4	False	lime	40	[ 90 570 405 675]	[1350 1830  405  675]
617.577	1.0	3149952	3150952	ELCue	VGS	101	4	False	lime	40	[ 90 570 405 675]	[1350 1830  405  675]
618.99	2.0	3151365	3153404	ShowFixation	VGS	102	4	False	lime	180	[405 885 405 675]	[1035 1515  405  675]
621.029	0.2	3153404	3153639	BlankScreen	VGS	102	4	False	lime	180	[405 885 405 675]	[1035 1515  405  675]
621.264	1.0	3153639	3154639	ELCue	VGS	102	4	False	lime	180	[405 885 405 675]	[1035 1515  405  675]
622.676	6.0	3155051	3161091	ShowFixation	ANTI	103	4	False	red	180	[1035 1515  405  675]	[405 885 405 675]
628.716	0.2	3161091	3161330	BlankScreen	ANTI	103	4	False	red	180	[1035 1515  405  675]	[405 885 405 675]
628.955	1.0	3161330	3162330	ELCue	ANTI	103	4	False	red	180	[1035 1515  405  675]	[405 885 405 675]
630.362	2.0	3162737	3164765	ShowFixation	ANTI	104	4	False	red	460	[405 885 405 675]	[1035 1515  405  675]
632.39	0.2	3164765	3165000	BlankScreen	ANTI	104	4	False	red	460	[405 885 405 675]	[1035 1515  405  675]
632.625	1.0	3165000	3166000	ELCue	ANTI	104	4	False	red	460	[405 885 405 675]	[1035 1515  405  675]
634.036	2.0	3166411	3168452	ShowFixation	VGS	105	4	False	lime	600	[1350 1830  405  675]	[ 90 570 405 675]
636.077	0.2	3168452	3168687	BlankScreen	VGS	105	4	False	lime	600	[1350 1830  405  675]	[ 90 570 405 675]
636.312	1.0	3168687	3169687	ELCue	VGS	105	4	False	lime	600	[1350 1830  405  675]	[ 90 570 405 675]
637.718	2.0	3170093	3172122	ShowFixation	VGS	106	4	False	lime	40	[ 90 570 405 675]	[1350 1830  405  675]
639.747	0.2	3172122	3172358	BlankScreen	VGS	106	4	False	lime	40	[ 90 570 405 675]	[1350 1830  405  675]
639.983	1.0	3172358	3173358	ELCue	VGS	106	4	False	lime	40	[ 90 570 405 675]	[1350 1830  405  675]
641.392	6.0	3173767	3179793	ShowFixation	ANTI	107	4	False	red	40	[1350 1830  405  675]	[ 90 570 405 675]
647.418	0.2	3179793	3180032	BlankScreen	ANTI	107	4	False	red	40	[1350 1830  405  675]	[ 90 570 405 675]
647.657	1.0	3180032	3181032	ELCue	ANTI	107	4	False	red	40	[1350 1830  405  675]	[ 90 570 405 675]
649.063	6.0	3181438	3187467	ShowFixation	ANTI	108	4	False	red	600	[ 90 570 405 675]	[1350 1830  405  675]
655.092	0.2	3187467	3187706	BlankScreen	ANTI	108	4	False	red	600	[ 90 570 405 675]	[1350 1830  405  675]
655.331	1.0	3187706	3188706	ELCue	ANTI	108	4	False	red	600	[ 90 570 405 675]	[1350 1830  405  675]
656.741	6.0	3189116	3195141	ShowFixation	ANTI	109	4	False	red	180	[1035 1515  405  675]	[405 885 405 675]
662.766	0.2	3195141	3195380	BlankScreen	ANTI	109	4	False	red	180	[1035 1515  405  675]	[405 885 405 675]
663.005	1.0	3195380	3196380	ELCue	ANTI	109	4	False	red	180	[1035 1515  405  675]	[405 885 405 675]
664.413	6.0	3196788	3202815	ShowFixation	VGS	110	4	False	lime	600	[1350 1830  405  675]	[ 90 570 405 675]
670.44	0.2	3202815	3203055	BlankScreen	VGS	110	4	False	lime	600	[1350 1830  405  675]	[ 90 570 405 675]
670.68	1.0	3203055	3204055	ELCue	VGS	110	4	False	lime	600	[1350 1830  405  675]	[ 90 570 405 675]
672.09	2.0	3204465	3206490	ShowFixation	VGS	111	4	False	lime	600	[1350 1830  405  675]	[ 90 570 405 675]
674.115	0.2	3206490	3206725	BlankScreen	VGS	111	4	False	lime	600	[1350 1830  405  675]	[ 90 570 405 675]
674.35	1.0	3206725	3207725	ELCue	VGS	111	4	False	lime	600	[1350 1830  405  675]	[ 90 570 405 675]
675.758	2.0	3208133	3210160	ShowFixation	VGS	112	4	False	lime	40	[ 90 570 405 675]	[1350 1830  405  675]
677.785	0.2	3210160	3210395	BlankScreen	VGS	112	4	False	lime	40	[ 90 570 405 675]	[1350 1830  405  675]
678.02	1.0	3210395	3211395	ELCue	VGS	112	4	False	lime	40	[ 90 570 405 675]	[1350 1830  405  675]
