onset	duration	startTime	stopTime	eventIdentifier	trial_type	trial_number	block_number	is_practice	fixation_color	cue_side	aoi_correct	aoi_incorrect
0.145	2.0	468061	470089	ShowFixation	ANTI	1	1	True	red	600	[ 90 570 405 675]	[1350 1830  405  675]
2.173	0.2	470089	470324	BlankScreen	ANTI	1	1	True	red	600	[ 90 570 405 675]	[1350 1830  405  675]
2.408	1.0	470324	471365	ELCue	ANTI	1	1	True	red	600	[ 90 570 405 675]	[1350 1830  405  675]
3.854	6.0	471770	478409	ShowFixation	VGS	2	1	True	lime	460	[1035 1515  405  675]	[405 885 405 675]
10.493	0.2	478409	478648	BlankScreen	VGS	2	1	True	lime	460	[1035 1515  405  675]	[405 885 405 675]
10.733	1.0	478649	479689	ELCue	VGS	2	1	True	lime	460	[1035 1515  405  675]	[405 885 405 675]
12.178	2.0	480094	482717	ShowFixation	ANTI	3	1	True	red	460	[405 885 405 675]	[1035 1515  405  675]
14.802	0.2	482718	482936	BlankScreen	ANTI	3	1	True	red	460	[405 885 405 675]	[1035 1515  405  675]
15.02	1.0	482936	483960	ELCue	ANTI	3	1	True	red	460	[405 885 405 675]	[1035 1515  405  675]
16.45	6.0	484366	491005	ShowFixation	ANTI	4	1	True	red	180	[1035 1515  405  675]	[405 885 405 675]
23.089	0.2	491005	491245	BlankScreen	ANTI	4	1	True	red	180	[1035 1515  405  675]	[405 885 405 675]
23.329	1.0	491245	492285	ELCue	ANTI	4	1	True	red	180	[1035 1515  405  675]	[405 885 405 675]
24.773	2.0	492689	495314	ShowFixation	VGS	5	1	True	lime	40	[ 90 570 405 675]	[1350 1830  405  675]
27.398	0.2	495314	495532	BlankScreen	VGS	5	1	True	lime	40	[ 90 570 405 675]	[1350 1830  405  675]
27.616	1.0	495532	496555	ELCue	VGS	5	1	True	lime	40	[ 90 570 405 675]	[1350 1830  405  675]
29.047	6.0	496963	503601	ShowFixation	ANTI	6	1	True	red	460	[405 885 405 675]	[1035 1515  405  675]
35.685	0.2	503601	503840	BlankScreen	ANTI	6	1	True	red	460	[405 885 405 675]	[1035 1515  405  675]
35.924	1.0	503840	504880	ELCue	ANTI	6	1	True	red	460	[405 885 405 675]	[1035 1515  405  675]
37.368	6.0	505284	511909	ShowFixation	VGS	7	1	True	lime	40	[ 90 570 405 675]	[1350 1830  405  675]
43.993	0.2	511909	512149	BlankScreen	VGS	7	1	True	lime	40	[ 90 570 405 675]	[1350 1830  405  675]
44.233	1.0	512149	513189	ELCue	VGS	7	1	True	lime	40	[ 90 570 405 675]	[1350 1830  405  675]
45.675	6.0	513591	520218	ShowFixation	ANTI	8	1	True	red	600	[ 90 570 405 675]	[1350 1830  405  675]
52.302	0.2	520218	520457	BlankScreen	ANTI	8	1	True	red	600	[ 90 570 405 675]	[1350 1830  405  675]
52.541	1.0	520457	521497	ELCue	ANTI	8	1	True	red	600	[ 90 570 405 675]	[1350 1830  405  675]
53.984	2.0	521900	524526	ShowFixation	VGS	9	1	True	lime	600	[1350 1830  405  675]	[ 90 570 405 675]
56.61	0.2	524526	524744	BlankScreen	VGS	9	1	True	lime	600	[1350 1830  405  675]	[ 90 570 405 675]
56.828	1.0	524744	525768	ELCue	VGS	9	1	True	lime	600	[1350 1830  405  675]	[ 90 570 405 675]
58.233	2.0	526149	528813	ShowFixation	ANTI	10	1	True	red	180	[1035 1515  405  675]	[405 885 405 675]
60.897	0.2	528813	529049	BlankScreen	ANTI	10	1	True	red	180	[1035 1515  405  675]	[405 885 405 675]
61.133	1.0	529049	530089	ELCue	ANTI	10	1	True	red	180	[1035 1515  405  675]	[405 885 405 675]
62.576	2.0	530492	533118	ShowFixation	ANTI	11	1	True	red	40	[1350 1830  405  675]	[ 90 570 405 675]
65.202	0.2	533118	533336	BlankScreen	ANTI	11	1	True	red	40	[1350 1830  405  675]	[ 90 570 405 675]
65.42	1.0	533336	534360	ELCue	ANTI	11	1	True	red	40	[1350 1830  405  675]	[ 90 570 405 675]
66.85	6.0	534766	541405	ShowFixation	VGS	12	1	True	lime	600	[1350 1830  405  675]	[ 90 570 405 675]
73.489	0.2	541405	541644	BlankScreen	VGS	12	1	True	lime	600	[1350 1830  405  675]	[ 90 570 405 675]
73.728	1.0	541644	542684	ELCue	VGS	12	1	True	lime	600	[1350 1830  405  675]	[ 90 570 405 675]
75.173	2.0	543089	545713	ShowFixation	VGS	13	1	True	lime	460	[1035 1515  405  675]	[405 885 405 675]
77.797	0.2	545713	545932	BlankScreen	VGS	13	1	True	lime	460	[1035 1515  405  675]	[405 885 405 675]
78.016	1.0	545932	546955	ELCue	VGS	13	1	True	lime	460	[1035 1515  405  675]	[405 885 405 675]
79.411	6.0	547327	554001	ShowFixation	ANTI	14	1	True	red	40	[1350 1830  405  675]	[ 90 570 405 675]
86.085	0.2	554001	554240	BlankScreen	ANTI	14	1	True	red	40	[1350 1830  405  675]	[ 90 570 405 675]
86.324	1.0	554240	555281	ELCue	ANTI	14	1	True	red	40	[1350 1830  405  675]	[ 90 570 405 675]
87.769	2.0	555685	558326	ShowFixation	VGS	15	1	True	lime	180	[405 885 405 675]	[1035 1515  405  675]
90.41	0.2	558326	558561	BlankScreen	VGS	15	1	True	lime	180	[405 885 405 675]	[1035 1515  405  675]
90.645	1.0	558561	559601	ELCue	VGS	15	1	True	lime	180	[405 885 405 675]	[1035 1515  405  675]
92.088	6.0	560004	566630	ShowFixation	VGS	16	1	True	lime	180	[405 885 405 675]	[1035 1515  405  675]
98.714	0.2	566630	566869	BlankScreen	VGS	16	1	True	lime	180	[405 885 405 675]	[1035 1515  405  675]
98.953	1.0	566869	567910	ELCue	VGS	16	1	True	lime	180	[405 885 405 675]	[1035 1515  405  675]
121.537	6.0	589453	595492	ShowFixation	ANTI	17	2	False	red	180	[1035 1515  405  675]	[405 885 405 675]
127.576	0.2	595492	595731	BlankScreen	ANTI	17	2	False	red	180	[1035 1515  405  675]	[405 885 405 675]
127.815	1.0	595731	596731	ELCue	ANTI	17	2	False	red	180	[1035 1515  405  675]	[405 885 405 675]
129.225	2.0	597141	599166	ShowFixation	ANTI	18	2	False	red	600	[ 90 570 405 675]	[1350 1830  405  675]
131.25	0.2	599166	599401	BlankScreen	ANTI	18	2	False	red	600	[ 90 570 405 675]	[1350 1830  405  675]
131.485	1.0	599401	600401	ELCue	ANTI	18	2	False	red	600	[ 90 570 405 675]	[1350 1830  405  675]
132.877	6.0	600793	606820	ShowFixation	ANTI	19	2	False	red	180	[1035 1515  405  675]	[405 885 405 675]
138.904	0.2	606820	607059	BlankScreen	ANTI	19	2	False	red	180	[1035 1515  405  675]	[405 885 405 675]
139.143	1.0	607059	608059	ELCue	ANTI	19	2	False	red	180	[1035 1515  405  675]	[405 885 405 675]
140.552	6.0	608468	614494	ShowFixation	VGS	20	2	False	lime	40	[ 90 570 405 675]	[1350 1830  405  675]
146.578	0.2	614494	614733	BlankScreen	VGS	20	2	False	lime	40	[ 90 570 405 675]	[1350 1830  405  675]
146.817	1.0	614733	615733	ELCue	VGS	20	2	False	lime	40	[ 90 570 405 675]	[1350 1830  405  675]
148.226	2.0	616142	618168	ShowFixation	VGS	21	2	False	lime	460	[1035 1515  405  675]	[405 885 405 675]
150.252	0.2	618168	618404	BlankScreen	VGS	21	2	False	lime	460	[1035 1515  405  675]	[405 885 405 675]
150.488	1.0	618404	619404	ELCue	VGS	21	2	False	lime	460	[1035 1515  405  675]	[405 885 405 675]
151.896	6.0	619812	625839	ShowFixation	VGS	22	2	False	lime	600	[1350 1830  405  675]	[ 90 570 405 675]
157.924	0.2	625840	626078	BlankScreen	VGS	22	2	False	lime	600	[1350 1830  405  675]	[ 90 570 405 675]
158.163	1.0	626079	627079	ELCue	VGS	22	2	False	lime	600	[1350 1830  405  675]	[ 90 570 405 675]
159.57	6.0	627486	633513	ShowFixation	VGS	23	2	False	lime	460	[1035 1515  405  675]	[405 885 405 675]
165.598	0.2	633514	633753	BlankScreen	VGS	23	2	False	lime	460	[1035 1515  405  675]	[405 885 405 675]
165.837	1.0	633753	634753	ELCue	VGS	23	2	False	lime	460	[1035 1515  405  675]	[405 885 405 675]
167.245	2.0	635161	637188	ShowFixation	VGS	24	2	False	lime	460	[1035 1515  405  675]	[405 885 405 675]
169.272	0.2	637188	637423	BlankScreen	VGS	24	2	False	lime	460	[1035 1515  405  675]	[405 885 405 675]
169.507	1.0	637423	638423	ELCue	VGS	24	2	False	lime	460	[1035 1515  405  675]	[405 885 405 675]
170.917	2.0	638833	640858	ShowFixation	ANTI	25	2	False	red	40	[1350 1830  405  675]	[ 90 570 405 675]
172.942	0.2	640858	641094	BlankScreen	ANTI	25	2	False	red	40	[1350 1830  405  675]	[ 90 570 405 675]
173.178	1.0	641094	642094	ELCue	ANTI	25	2	False	red	40	[1350 1830  405  675]	[ 90 570 405 675]
174.587	2.0	642503	644529	ShowFixation	VGS	26	2	False	lime	40	[ 90 570 405 675]	[1350 1830  405  675]
176.613	0.2	644529	644764	BlankScreen	VGS	26	2	False	lime	40	[ 90 570 405 675]	[1350 1830  405  675]
176.848	1.0	644764	645764	ELCue	VGS	26	2	False	lime	40	[ 90 570 405 675]	[1350 1830  405  675]
178.254	6.0	646170	652199	ShowFixation	ANTI	27	2	False	red	600	[ 90 570 405 675]	[1350 1830  405  675]
184.283	0.2	652199	652438	BlankScreen	ANTI	27	2	False	red	600	[ 90 570 405 675]	[1350 1830  405  675]
184.522	1.0	652438	653438	ELCue	ANTI	27	2	False	red	600	[ 90 570 405 675]	[1350 1830  405  675]
185.935	2.0	653851	655890	ShowFixation	VGS	28	2	False	lime	180	[405 885 405 675]	[1035 1515  405  675]
187.974	0.2	655890	656125	BlankScreen	VGS	28	2	False	lime	180	[405 885 405 675]	[1035 1515  405  675]
188.209	1.0	656125	657125	ELCue	VGS	28	2	False	lime	180	[405 885 405 675]	[1035 1515  405  675]
189.585	6.0	657501	663527	ShowFixation	ANTI	29	2	False	red	460	[405 885 405 675]	[1035 1515  405  675]
195.611	0.2	663527	663766	BlankScreen	ANTI	29	2	False	red	460	[405 885 405 675]	[1035 1515  405  675]
195.85	1.0	663766	664766	ELCue	ANTI	29	2	False	red	460	[405 885 405 675]	[1035 1515  405  675]
197.255	6.0	665171	671201	ShowFixation	VGS	30	2	False	lime	180	[405 885 405 675]	[1035 1515  405  675]
203.285	0.2	671201	671440	BlankScreen	VGS	30	2	False	lime	180	[405 885 405 675]	[1035 1515  405  675]
203.524	1.0	671440	672440	ELCue	VGS	30	2	False	lime	180	[405 885 405 675]	[1035 1515  405  675]
204.931	6.0	672847	678875	ShowFixation	ANTI	31	2	False	red	40	[1350 1830  405  675]	[ 90 570 405 675]
210.959	0.2	678875	679115	BlankScreen	ANTI	31	2	False	red	40	[1350 1830  405  675]	[ 90 570 405 675]
211.199	1.0	679115	680115	ELCue	ANTI	31	2	False	red	40	[1350 1830  405  675]	[ 90 570 405 675]
212.606	2.0	680522	682549	ShowFixation	VGS	32	2	False	lime	600	[1350 1830  405  675]	[ 90 570 405 675]
214.633	0.2	682549	682785	BlankScreen	VGS	32	2	False	lime	600	[1350 1830  405  675]	[ 90 570 405 675]
214.869	1.0	682785	683785	ELCue	VGS	32	2	False	lime	600	[1350 1830  405  675]	[ 90 570 405 675]
216.275	6.0	684191	690220	ShowFixation	VGS	33	2	False	lime	460	[1035 1515  405  675]	[405 885 405 675]
222.304	0.2	690220	690459	BlankScreen	VGS	33	2	False	lime	460	[1035 1515  405  675]	[405 885 405 675]
222.543	1.0	690459	691459	ELCue	VGS	33	2	False	lime	460	[1035 1515  405  675]	[405 885 405 675]
223.952	6.0	691868	697894	ShowFixation	VGS	34	2	False	lime	40	[ 90 570 405 675]	[1350 1830  405  675]
229.978	0.2	697894	698133	BlankScreen	VGS	34	2	False	lime	40	[ 90 570 405 675]	[1350 1830  405  675]
230.217	1.0	698133	699133	ELCue	VGS	34	2	False	lime	40	[ 90 570 405 675]	[1350 1830  405  675]
231.625	2.0	699541	701568	ShowFixation	ANTI	35	2	False	red	180	[1035 1515  405  675]	[405 885 405 675]
233.652	0.2	701568	701804	BlankScreen	ANTI	35	2	False	red	180	[1035 1515  405  675]	[405 885 405 675]
233.888	1.0	701804	702804	ELCue	ANTI	35	2	False	red	180	[1035 1515  405  675]	[405 885 405 675]
235.294	2.0	703210	705239	ShowFixation	VGS	36	2	False	lime	40	[ 90 570 405 675]	[1350 1830  405  675]
237.323	0.2	705239	705474	BlankScreen	VGS	36	2	False	lime	40	[ 90 570 405 675]	[1350 1830  405  675]
237.558	1.0	705474	706474	ELCue	VGS	36	2	False	lime	40	[ 90 570 405 675]	[1350 1830  405  675]
238.963	2.0	706879	708909	ShowFixation	ANTI	37	2	False	red	40	[1350 1830  405  675]	[ 90 570 405 675]
240.993	0.2	708909	709144	BlankScreen	ANTI	37	2	False	red	40	[1350 1830  405  675]	[ 90 570 405 675]
241.228	1.0	709144	710144	ELCue	ANTI	37	2	False	red	40	[1350 1830  405  675]	[ 90 570 405 675]
242.634	2.0	710550	712579	ShowFixation	VGS	38	2	False	lime	600	[1350 1830  405  675]	[ 90 570 405 675]
244.663	0.2	712579	712814	BlankScreen	VGS	38	2	False	lime	600	[1350 1830  405  675]	[ 90 570 405 675]
244.898	1.0	712814	713814	ELCue	VGS	38	2	False	lime	600	[1350 1830  405  675]	[ 90 570 405 675]
246.31	2.0	714226	716266	ShowFixation	VGS	39	2	False	lime	180	[405 885 405 675]	[1035 1515  405  675]
248.35	0.2	716266	716501	BlankScreen	VGS	39	2	False	lime	180	[405 885 405 675]	[1035 1515  405  675]
248.585	1.0	716501	717501	ELCue	VGS	39	2	False	lime	180	[405 885 405 675]	[1035 1515  405  675]
249.995	6.0	717911	723936	ShowFixation	ANTI	40	2	False	red	40	[1350 1830  405  675]	[ 90 570 405 675]
256.02	0.2	723936	724176	BlankScreen	ANTI	40	2	False	red	40	[1350 1830  405  675]	[ 90 570 405 675]
256.26	1.0	724176	725176	ELCue	ANTI	40	2	False	red	40	[1350 1830  405  675]	[ 90 570 405 675]
257.665	2.0	725581	727611	ShowFixation	ANTI	41	2	False	red	600	[ 90 570 405 675]	[1350 1830  405  675]
259.695	0.2	727611	727846	BlankScreen	ANTI	41	2	False	red	600	[ 90 570 405 675]	[1350 1830  405  675]
259.93	1.0	727846	728846	ELCue	ANTI	41	2	False	red	600	[ 90 570 405 675]	[1350 1830  405  675]
261.335	6.0	729251	735281	ShowFixation	VGS	42	2	False	lime	600	[1350 1830  405  675]	[ 90 570 405 675]
267.365	0.2	735281	735520	BlankScreen	VGS	42	2	False	lime	600	[1350 1830  405  675]	[ 90 570 405 675]
267.604	1.0	735520	736520	ELCue	VGS	42	2	False	lime	600	[1350 1830  405  675]	[ 90 570 405 675]
269.013	6.0	736929	742955	ShowFixation	ANTI	43	2	False	red	460	[405 885 405 675]	[1035 1515  405  675]
275.039	0.2	742955	743194	BlankScreen	ANTI	43	2	False	red	460	[405 885 405 675]	[1035 1515  405  675]
275.278	1.0	743194	744194	ELCue	ANTI	43	2	False	red	460	[405 885 405 675]	[1035 1515  405  675]
276.691	6.0	744607	750646	ShowFixation	VGS	44	2	False	lime	180	[405 885 405 675]	[1035 1515  405  675]
282.73	0.2	750646	750885	BlankScreen	VGS	44	2	False	lime	180	[405 885 405 675]	[1035 1515  405  675]
282.969	1.0	750885	751885	ELCue	VGS	44	2	False	lime	180	[405 885 405 675]	[1035 1515  405  675]
284.382	2.0	752298	754337	ShowFixation	ANTI	45	2	False	red	180	[1035 1515  405  675]	[405 885 405 675]
286.421	0.2	754337	754572	BlankScreen	ANTI	45	2	False	red	180	[1035 1515  405  675]	[405 885 405 675]
286.656	1.0	754572	755572	ELCue	ANTI	45	2	False	red	180	[1035 1515  405  675]	[405 885 405 675]
288.063	2.0	755979	758007	ShowFixation	ANTI	46	2	False	red	460	[405 885 405 675]	[1035 1515  405  675]
290.091	0.2	758007	758243	BlankScreen	ANTI	46	2	False	red	460	[405 885 405 675]	[1035 1515  405  675]
290.327	1.0	758243	759243	ELCue	ANTI	46	2	False	red	460	[405 885 405 675]	[1035 1515  405  675]
291.736	2.0	759652	761678	ShowFixation	ANTI	47	2	False	red	460	[405 885 405 675]	[1035 1515  405  675]
293.762	0.2	761678	761913	BlankScreen	ANTI	47	2	False	red	460	[405 885 405 675]	[1035 1515  405  675]
293.997	1.0	761913	762913	ELCue	ANTI	47	2	False	red	460	[405 885 405 675]	[1035 1515  405  675]
295.407	6.0	763323	769349	ShowFixation	ANTI	48	2	False	red	600	[ 90 570 405 675]	[1350 1830  405  675]
301.433	0.2	769349	769588	BlankScreen	ANTI	48	2	False	red	600	[ 90 570 405 675]	[1350 1830  405  675]
301.672	1.0	769588	770588	ELCue	ANTI	48	2	False	red	600	[ 90 570 405 675]	[1350 1830  405  675]
370.052	6.0	837968	844006	ShowFixation	ANTI	49	3	False	red	460	[405 885 405 675]	[1035 1515  405  675]
376.09	0.2	844006	844245	BlankScreen	ANTI	49	3	False	red	460	[405 885 405 675]	[1035 1515  405  675]
376.329	1.0	844245	845245	ELCue	ANTI	49	3	False	red	460	[405 885 405 675]	[1035 1515  405  675]
377.737	2.0	845653	847680	ShowFixation	VGS	50	3	False	lime	460	[1035 1515  405  675]	[405 885 405 675]
379.764	0.2	847680	847916	BlankScreen	VGS	50	3	False	lime	460	[1035 1515  405  675]	[405 885 405 675]
380.0	1.0	847916	848916	ELCue	VGS	50	3	False	lime	460	[1035 1515  405  675]	[405 885 405 675]
381.408	6.0	849324	855350	ShowFixation	ANTI	51	3	False	red	600	[ 90 570 405 675]	[1350 1830  405  675]
387.434	0.2	855350	855590	BlankScreen	ANTI	51	3	False	red	600	[ 90 570 405 675]	[1350 1830  405  675]
387.674	1.0	855590	856590	ELCue	ANTI	51	3	False	red	600	[ 90 570 405 675]	[1350 1830  405  675]
389.077	6.0	856993	863025	ShowFixation	VGS	52	3	False	lime	180	[405 885 405 675]	[1035 1515  405  675]
395.109	0.2	863025	863264	BlankScreen	VGS	52	3	False	lime	180	[405 885 405 675]	[1035 1515  405  675]
395.348	1.0	863264	864264	ELCue	VGS	52	3	False	lime	180	[405 885 405 675]	[1035 1515  405  675]
396.758	6.0	864674	870716	ShowFixation	VGS	53	3	False	lime	600	[1350 1830  405  675]	[ 90 570 405 675]
402.8	0.2	870716	870955	BlankScreen	VGS	53	3	False	lime	600	[1350 1830  405  675]	[ 90 570 405 675]
403.039	1.0	870955	871955	ELCue	VGS	53	3	False	lime	600	[1350 1830  405  675]	[ 90 570 405 675]
404.446	2.0	872362	874390	ShowFixation	ANTI	54	3	False	red	40	[1350 1830  405  675]	[ 90 570 405 675]
406.474	0.2	874390	874625	BlankScreen	ANTI	54	3	False	red	40	[1350 1830  405  675]	[ 90 570 405 675]
406.709	1.0	874625	875625	ELCue	ANTI	54	3	False	red	40	[1350 1830  405  675]	[ 90 570 405 675]
408.114	6.0	876030	882060	ShowFixation	ANTI	55	3	False	red	180	[1035 1515  405  675]	[405 885 405 675]
414.144	0.2	882060	882300	BlankScreen	ANTI	55	3	False	red	180	[1035 1515  405  675]	[405 885 405 675]
414.384	1.0	882300	883300	ELCue	ANTI	55	3	False	red	180	[1035 1515  405  675]	[405 885 405 675]
415.785	2.0	883701	885734	ShowFixation	ANTI	56	3	False	red	460	[405 885 405 675]	[1035 1515  405  675]
417.818	0.2	885734	885970	BlankScreen	ANTI	56	3	False	red	460	[405 885 405 675]	[1035 1515  405  675]
418.054	1.0	885970	886970	ELCue	ANTI	56	3	False	red	460	[405 885 405 675]	[1035 1515  405  675]
419.46	2.0	887376	889405	ShowFixation	VGS	57	3	False	lime	40	[ 90 570 405 675]	[1350 1830  405  675]
421.489	0.2	889405	889640	BlankScreen	VGS	57	3	False	lime	40	[ 90 570 405 675]	[1350 1830  405  675]
421.724	1.0	889640	890640	ELCue	VGS	57	3	False	lime	40	[ 90 570 405 675]	[1350 1830  405  675]
423.218	6.0	891134	897158	ShowFixation	VGS	58	3	False	lime	460	[1035 1515  405  675]	[405 885 405 675]
429.242	0.2	897158	897398	BlankScreen	VGS	58	3	False	lime	460	[1035 1515  405  675]	[405 885 405 675]
429.482	1.0	897398	898398	ELCue	VGS	58	3	False	lime	460	[1035 1515  405  675]	[405 885 405 675]
430.888	6.0	898804	904833	ShowFixation	ANTI	59	3	False	red	180	[1035 1515  405  675]	[405 885 405 675]
436.917	0.2	904833	905072	BlankScreen	ANTI	59	3	False	red	180	[1035 1515  405  675]	[405 885 405 675]
437.156	1.0	905072	906072	ELCue	ANTI	59	3	False	red	180	[1035 1515  405  675]	[405 885 405 675]
438.564	2.0	906480	908507	ShowFixation	VGS	60	3	False	lime	40	[ 90 570 405 675]	[1350 1830  405  675]
440.591	0.2	908507	908742	BlankScreen	VGS	60	3	False	lime	40	[ 90 570 405 675]	[1350 1830  405  675]
440.826	1.0	908742	909742	ELCue	VGS	60	3	False	lime	40	[ 90 570 405 675]	[1350 1830  405  675]
442.204	2.0	910120	912144	ShowFixation	ANTI	61	3	False	red	600	[ 90 570 405 675]	[1350 1830  405  675]
444.228	0.2	912144	912379	BlankScreen	ANTI	61	3	False	red	600	[ 90 570 405 675]	[1350 1830  405  675]
444.463	1.0	912379	913379	ELCue	ANTI	61	3	False	red	600	[ 90 570 405 675]	[1350 1830  405  675]
445.874	6.0	913790	919814	ShowFixation	ANTI	62	3	False	red	40	[1350 1830  405  675]	[ 90 570 405 675]
451.899	0.2	919815	920053	BlankScreen	ANTI	62	3	False	red	40	[1350 1830  405  675]	[ 90 570 405 675]
452.138	1.0	920054	921054	ELCue	ANTI	62	3	False	red	40	[1350 1830  405  675]	[ 90 570 405 675]
453.532	6.0	921448	927489	ShowFixation	ANTI	63	3	False	red	40	[1350 1830  405  675]	[ 90 570 405 675]
459.573	0.2	927489	927728	BlankScreen	ANTI	63	3	False	red	40	[1350 1830  405  675]	[ 90 570 405 675]
459.812	1.0	927728	928728	ELCue	ANTI	63	3	False	red	40	[1350 1830  405  675]	[ 90 570 405 675]
461.221	6.0	929137	935164	ShowFixation	ANTI	64	3	False	red	600	[ 90 570 405 675]	[1350 1830  405  675]
467.248	0.2	935164	935403	BlankScreen	ANTI	64	3	False	red	600	[ 90 570 405 675]	[1350 1830  405  675]
467.487	1.0	935403	936403	ELCue	ANTI	64	3	False	red	600	[ 90 570 405 675]	[1350 1830  405  675]
468.895	6.0	936811	942838	ShowFixation	VGS	65	3	False	lime	40	[ 90 570 405 675]	[1350 1830  405  675]
474.922	0.2	942838	943077	BlankScreen	VGS	65	3	False	lime	40	[ 90 570 405 675]	[1350 1830  405  675]
475.161	1.0	943077	944077	ELCue	VGS	65	3	False	lime	40	[ 90 570 405 675]	[1350 1830  405  675]
476.57	2.0	944486	946512	ShowFixation	ANTI	66	3	False	red	460	[405 885 405 675]	[1035 1515  405  675]
478.596	0.2	946512	946747	BlankScreen	ANTI	66	3	False	red	460	[405 885 405 675]	[1035 1515  405  675]
478.831	1.0	946747	947747	ELCue	ANTI	66	3	False	red	460	[405 885 405 675]	[1035 1515  405  675]
480.24	2.0	948156	950182	ShowFixation	VGS	67	3	False	lime	600	[1350 1830  405  675]	[ 90 570 405 675]
482.266	0.2	950182	950418	BlankScreen	VGS	67	3	False	lime	600	[1350 1830  405  675]	[ 90 570 405 675]
482.502	1.0	950418	951418	ELCue	VGS	67	3	False	lime	600	[1350 1830  405  675]	[ 90 570 405 675]
483.909	2.0	951825	953853	ShowFixation	ANTI	68	3	False	red	40	[1350 1830  405  675]	[ 90 570 405 675]
485.937	0.2	953853	954088	BlankScreen	ANTI	68	3	False	red	40	[1350 1830  405  675]	[ 90 570 405 675]
486.172	1.0	954088	955088	ELCue	ANTI	68	3	False	red	40	[1350 1830  405  675]	[ 90 570 405 675]
487.581	6.0	955497	961523	ShowFixation	VGS	69	3	False	lime	600	[1350 1830  405  675]	[ 90 570 405 675]
493.607	0.2	961523	961762	BlankScreen	VGS	69	3	False	lime	600	[1350 1830  405  675]	[ 90 570 405 675]
493.846	1.0	961762	962762	ELCue	VGS	69	3	False	lime	600	[1350 1830  405  675]	[ 90 570 405 675]
495.241	6.0	963157	969197	ShowFixation	VGS	70	3	False	lime	40	[ 90 570 405 675]	[1350 1830  405  675]
501.281	0.2	969197	969437	BlankScreen	VGS	70	3	False	lime	40	[ 90 570 405 675]	[1350 1830  405  675]
501.521	1.0	969437	970437	ELCue	VGS	70	3	False	lime	40	[ 90 570 405 675]	[1350 1830  405  675]
502.928	2.0	970844	972871	ShowFixation	VGS	71	3	False	lime	180	[405 885 405 675]	[1035 1515  405  675]
504.955	0.2	972871	973107	BlankScreen	VGS	71	3	False	lime	180	[405 885 405 675]	[1035 1515  405  675]
505.191	1.0	973107	974107	ELCue	VGS	71	3	False	lime	180	[405 885 405 675]	[1035 1515  405  675]
506.577	2.0	974493	976525	ShowFixation	ANTI	72	3	False	red	600	[ 90 570 405 675]	[1350 1830  405  675]
508.609	0.2	976525	976760	BlankScreen	ANTI	72	3	False	red	600	[ 90 570 405 675]	[1350 1830  405  675]
508.844	1.0	976760	977760	ELCue	ANTI	72	3	False	red	600	[ 90 570 405 675]	[1350 1830  405  675]
510.25	2.0	978166	980195	ShowFixation	ANTI	73	3	False	red	180	[1035 1515  405  675]	[405 885 405 675]
512.279	0.2	980195	980431	BlankScreen	ANTI	73	3	False	red	180	[1035 1515  405  675]	[405 885 405 675]
512.515	1.0	980431	981431	ELCue	ANTI	73	3	False	red	180	[1035 1515  405  675]	[405 885 405 675]
513.925	6.0	981841	987882	ShowFixation	VGS	74	3	False	lime	460	[1035 1515  405  675]	[405 885 405 675]
519.966	0.2	987882	988122	BlankScreen	VGS	74	3	False	lime	460	[1035 1515  405  675]	[405 885 405 675]
520.206	1.0	988122	989122	ELCue	VGS	74	3	False	lime	460	[1035 1515  405  675]	[405 885 405 675]
521.613	2.0	989529	991557	ShowFixation	ANTI	75	3	False	red	180	[1035 1515  405  675]	[405 885 405 675]
523.641	0.2	991557	991792	BlankScreen	ANTI	75	3	False	red	180	[1035 1515  405  675]	[405 885 405 675]
523.876	1.0	991792	992792	ELCue	ANTI	75	3	False	red	180	[1035 1515  405  675]	[405 885 405 675]
525.266	6.0	993182	999210	ShowFixation	VGS	76	3	False	lime	180	[405 885 405 675]	[1035 1515  405  675]
531.294	0.2	999210	999450	BlankScreen	VGS	76	3	False	lime	180	[405 885 405 675]	[1035 1515  405  675]
531.534	1.0	999450	1000450	ELCue	VGS	76	3	False	lime	180	[405 885 405 675]	[1035 1515  405  675]
532.944	2.0	1000860	1002901	ShowFixation	VGS	77	3	False	lime	460	[1035 1515  405  675]	[405 885 405 675]
534.985	0.2	1002901	1003136	BlankScreen	VGS	77	3	False	lime	460	[1035 1515  405  675]	[405 885 405 675]
535.22	1.0	1003136	1004136	ELCue	VGS	77	3	False	lime	460	[1035 1515  405  675]	[405 885 405 675]
536.591	2.0	1004507	1006538	ShowFixation	VGS	78	3	False	lime	180	[405 885 405 675]	[1035 1515  405  675]
538.622	0.2	1006538	1006773	BlankScreen	VGS	78	3	False	lime	180	[405 885 405 675]	[1035 1515  405  675]
538.857	1.0	1006773	1007773	ELCue	VGS	78	3	False	lime	180	[405 885 405 675]	[1035 1515  405  675]
540.262	6.0	1008178	1014208	ShowFixation	ANTI	79	3	False	red	460	[405 885 405 675]	[1035 1515  405  675]
546.292	0.2	1014208	1014448	BlankScreen	ANTI	79	3	False	red	460	[405 885 405 675]	[1035 1515  405  675]
546.532	1.0	1014448	1015448	ELCue	ANTI	79	3	False	red	460	[405 885 405 675]	[1035 1515  405  675]
547.938	2.0	1015854	1017883	ShowFixation	VGS	80	3	False	lime	600	[1350 1830  405  675]	[ 90 570 405 675]
549.967	0.2	1017883	1018118	BlankScreen	VGS	80	3	False	lime	600	[1350 1830  405  675]	[ 90 570 405 675]
550.202	1.0	1018118	1019118	ELCue	VGS	80	3	False	lime	600	[1350 1830  405  675]	[ 90 570 405 675]
592.782	6.0	1060698	1066727	ShowFixation	ANTI	81	4	False	red	40	[1350 1830  405  675]	[ 90 570 405 675]
598.812	0.2	1066728	1066967	BlankScreen	ANTI	81	4	False	red	40	[1350 1830  405  675]	[ 90 570 405 675]
599.051	1.0	1066967	1067967	ELCue	ANTI	81	4	False	red	40	[1350 1830  405  675]	[ 90 570 405 675]
600.46	2.0	1068376	1070401	ShowFixation	ANTI	82	4	False	red	180	[1035 1515  405  675]	[405 885 405 675]
602.486	0.2	1070402	1070637	BlankScreen	ANTI	82	4	False	red	180	[1035 1515  405  675]	[405 885 405 675]
602.721	1.0	1070637	1071637	ELCue	ANTI	82	4	False	red	180	[1035 1515  405  675]	[405 885 405 675]
604.131	6.0	1072047	1078072	ShowFixation	VGS	83	4	False	lime	40	[ 90 570 405 675]	[1350 1830  405  675]
610.156	0.2	1078072	1078312	BlankScreen	VGS	83	4	False	lime	40	[ 90 570 405 675]	[1350 1830  405  675]
610.396	1.0	1078312	1079312	ELCue	VGS	83	4	False	lime	40	[ 90 570 405 675]	[1350 1830  405  675]
611.805	2.0	1079721	1081747	ShowFixation	ANTI	84	4	False	red	600	[ 90 570 405 675]	[1350 1830  405  675]
613.831	0.2	1081747	1081982	BlankScreen	ANTI	84	4	False	red	600	[ 90 570 405 675]	[1350 1830  405  675]
614.066	1.0	1081982	1082982	ELCue	ANTI	84	4	False	red	600	[ 90 570 405 675]	[1350 1830  405  675]
615.475	6.0	1083391	1089417	ShowFixation	VGS	85	4	False	lime	600	[1350 1830  405  675]	[ 90 570 405 675]
621.501	0.2	1089417	1089656	BlankScreen	VGS	85	4	False	lime	600	[1350 1830  405  675]	[ 90 570 405 675]
621.74	1.0	1089656	1090656	ELCue	VGS	85	4	False	lime	600	[1350 1830  405  675]	[ 90 570 405 675]
623.126	6.0	1091042	1097075	ShowFixation	VGS	86	4	False	lime	40	[ 90 570 405 675]	[1350 1830  405  675]
629.159	0.2	1097075	1097314	BlankScreen	VGS	86	4	False	lime	40	[ 90 570 405 675]	[1350 1830  405  675]
629.398	1.0	1097314	1098314	ELCue	VGS	86	4	False	lime	40	[ 90 570 405 675]	[1350 1830  405  675]
630.79	2.0	1098706	1100732	ShowFixation	ANTI	87	4	False	red	40	[1350 1830  405  675]	[ 90 570 405 675]
632.816	0.2	1100732	1100967	BlankScreen	ANTI	87	4	False	red	40	[1350 1830  405  675]	[ 90 570 405 675]
633.051	1.0	1100967	1101967	ELCue	ANTI	87	4	False	red	40	[1350 1830  405  675]	[ 90 570 405 675]
634.46	6.0	1102376	1108402	ShowFixation	ANTI	88	4	False	red	460	[405 885 405 675]	[1035 1515  405  675]
640.486	0.2	1108402	1108642	BlankScreen	ANTI	88	4	False	red	460	[405 885 405 675]	[1035 1515  405  675]
640.726	1.0	1108642	1109642	ELCue	ANTI	88	4	False	red	460	[405 885 405 675]	[1035 1515  405  675]
642.131	2.0	1110047	1112077	ShowFixation	ANTI	89	4	False	red	460	[405 885 405 675]	[1035 1515  405  675]
644.161	0.2	1112077	1112312	BlankScreen	ANTI	89	4	False	red	460	[405 885 405 675]	[1035 1515  405  675]
644.396	1.0	1112312	1113312	ELCue	ANTI	89	4	False	red	460	[405 885 405 675]	[1035 1515  405  675]
645.804	2.0	1113720	1115747	ShowFixation	VGS	90	4	False	lime	40	[ 90 570 405 675]	[1350 1830  405  675]
647.831	0.2	1115747	1115982	BlankScreen	VGS	90	4	False	lime	40	[ 90 570 405 675]	[1350 1830  405  675]
648.066	1.0	1115982	1116982	ELCue	VGS	90	4	False	lime	40	[ 90 570 405 675]	[1350 1830  405  675]
649.472	6.0	1117388	1123417	ShowFixation	VGS	91	4	False	lime	180	[405 885 405 675]	[1035 1515  405  675]
655.501	0.2	1123417	1123657	BlankScreen	VGS	91	4	False	lime	180	[405 885 405 675]	[1035 1515  405  675]
655.741	1.0	1123657	1124657	ELCue	VGS	91	4	False	lime	180	[405 885 405 675]	[1035 1515  405  675]
657.146	2.0	1125062	1127091	ShowFixation	ANTI	92	4	False	red	40	[1350 1830  405  675]	[ 90 570 405 675]
659.175	0.2	1127091	1127327	BlankScreen	ANTI	92	4	False	red	40	[1350 1830  405  675]	[ 90 570 405 675]
659.411	1.0	1127327	1128327	ELCue	ANTI	92	4	False	red	40	[1350 1830  405  675]	[ 90 570 405 675]
660.814	6.0	1128730	1134762	ShowFixation	VGS	93	4	False	lime	180	[405 885 405 675]	[1035 1515  405  675]
666.846	0.2	1134762	1135001	BlankScreen	VGS	93	4	False	lime	180	[405 885 405 675]	[1035 1515  405  675]
667.085	1.0	1135001	1136001	ELCue	VGS	93	4	False	lime	180	[405 885 405 675]	[1035 1515  405  675]
668.488	6.0	1136404	1142436	ShowFixation	ANTI	94	4	False	red	600	[ 90 570 405 675]	[1350 1830  405  675]
674.52	0.2	1142436	1142675	BlankScreen	ANTI	94	4	False	red	600	[ 90 570 405 675]	[1350 1830  405  675]
674.759	1.0	1142675	1143675	ELCue	ANTI	94	4	False	red	600	[ 90 570 405 675]	[1350 1830  405  675]
676.131	2.0	1144047	1146077	ShowFixation	VGS	95	4	False	lime	600	[1350 1830  405  675]	[ 90 570 405 675]
678.161	0.2	1146077	1146312	BlankScreen	VGS	95	4	False	lime	600	[1350 1830  405  675]	[ 90 570 405 675]
678.396	1.0	1146312	1147312	ELCue	VGS	95	4	False	lime	600	[1350 1830  405  675]	[ 90 570 405 675]
679.798	6.0	1147714	1153747	ShowFixation	ANTI	96	4	False	red	460	[405 885 405 675]	[1035 1515  405  675]
685.831	0.2	1153747	1153986	BlankScreen	ANTI	96	4	False	red	460	[405 885 405 675]	[1035 1515  405  675]
686.07	1.0	1153986	1154986	ELCue	ANTI	96	4	False	red	460	[405 885 405 675]	[1035 1515  405  675]
687.481	2.0	1155397	1157438	ShowFixation	VGS	97	4	False	lime	460	[1035 1515  405  675]	[405 885 405 675]
689.522	0.2	1157438	1157673	BlankScreen	VGS	97	4	False	lime	460	[1035 1515  405  675]	[405 885 405 675]
689.757	1.0	1157673	1158673	ELCue	VGS	97	4	False	lime	460	[1035 1515  405  675]	[405 885 405 675]
691.131	2.0	1159047	1161075	ShowFixation	VGS	98	4	False	lime	460	[1035 1515  405  675]	[405 885 405 675]
693.159	0.2	1161075	1161310	BlankScreen	VGS	98	4	False	lime	460	[1035 1515  405  675]	[405 885 405 675]
693.394	1.0	1161310	1162310	ELCue	VGS	98	4	False	lime	460	[1035 1515  405  675]	[405 885 405 675]
694.804	2.0	1162720	1164745	ShowFixation	VGS	99	4	False	lime	600	[1350 1830  405  675]	[ 90 570 405 675]
696.829	0.2	1164745	1164981	BlankScreen	VGS	99	4	False	lime	600	[1350 1830  405  675]	[ 90 570 405 675]
697.065	1.0	1164981	1165981	ELCue	VGS	99	4	False	lime	600	[1350 1830  405  675]	[ 90 570 405 675]
698.471	6.0	1166387	1172416	ShowFixation	VGS	100	4	False	lime	460	[1035 1515  405  675]	[405 885 405 675]
704.5	0.2	1172416	1172655	BlankScreen	VGS	100	4	False	lime	460	[1035 1515  405  675]	[405 885 405 675]
704.739	1.0	1172655	1173655	ELCue	VGS	100	4	False	lime	460	[1035 1515  405  675]	[405 885 405 675]
706.129	2.0	1174045	1176073	ShowFixation	VGS	101	4	False	lime	40	[ 90 570 405 675]	[1350 1830  405  675]
708.157	0.2	1176073	1176309	BlankScreen	VGS	101	4	False	lime	40	[ 90 570 405 675]	[1350 1830  405  675]
708.393	1.0	1176309	1177309	ELCue	VGS	101	4	False	lime	40	[ 90 570 405 675]	[1350 1830  405  675]
709.794	2.0	1177710	1179743	ShowFixation	ANTI	102	4	False	red	460	[405 885 405 675]	[1035 1515  405  675]
711.827	0.2	1179743	1179979	BlankScreen	ANTI	102	4	False	red	460	[405 885 405 675]	[1035 1515  405  675]
712.063	1.0	1179979	1180979	ELCue	ANTI	102	4	False	red	460	[405 885 405 675]	[1035 1515  405  675]
713.473	2.0	1181389	1183414	ShowFixation	ANTI	103	4	False	red	600	[ 90 570 405 675]	[1350 1830  405  675]
715.498	0.2	1183414	1183649	BlankScreen	ANTI	103	4	False	red	600	[ 90 570 405 675]	[1350 1830  405  675]
715.733	1.0	1183649	1184649	ELCue	ANTI	103	4	False	red	600	[ 90 570 405 675]	[1350 1830  405  675]
717.143	6.0	1185059	1191084	ShowFixation	VGS	104	4	False	lime	460	[1035 1515  405  675]	[405 885 405 675]
723.168	0.2	1191084	1191323	BlankScreen	VGS	104	4	False	lime	460	[1035 1515  405  675]	[405 885 405 675]
723.407	1.0	1191323	1192323	ELCue	VGS	104	4	False	lime	460	[1035 1515  405  675]	[405 885 405 675]
724.821	2.0	1192737	1194775	ShowFixation	VGS	105	4	False	lime	180	[405 885 405 675]	[1035 1515  405  675]
726.859	0.2	1194775	1195010	BlankScreen	VGS	105	4	False	lime	180	[405 885 405 675]	[1035 1515  405  675]
727.094	1.0	1195010	1196010	ELCue	VGS	105	4	False	lime	180	[405 885 405 675]	[1035 1515  405  675]
728.503	2.0	1196419	1198445	ShowFixation	ANTI	106	4	False	red	180	[1035 1515  405  675]	[405 885 405 675]
730.529	0.2	1198445	1198681	BlankScreen	ANTI	106	4	False	red	180	[1035 1515  405  675]	[405 885 405 675]
730.765	1.0	1198681	1199681	ELCue	ANTI	106	4	False	red	180	[1035 1515  405  675]	[405 885 405 675]
732.174	6.0	1200090	1206117	ShowFixation	VGS	107	4	False	lime	600	[1350 1830  405  675]	[ 90 570 405 675]
738.201	0.2	1206117	1206355	BlankScreen	VGS	107	4	False	lime	600	[1350 1830  405  675]	[ 90 570 405 675]
738.44	1.0	1206356	1207356	ELCue	VGS	107	4	False	lime	600	[1350 1830  405  675]	[ 90 570 405 675]
739.846	2.0	1207762	1209791	ShowFixation	VGS	108	4	False	lime	180	[405 885 405 675]	[1035 1515  405  675]
741.875	0.2	1209791	1210026	BlankScreen	VGS	108	4	False	lime	180	[405 885 405 675]	[1035 1515  405  675]
742.11	1.0	1210026	1211026	ELCue	VGS	108	4	False	lime	180	[405 885 405 675]	[1035 1515  405  675]
743.517	6.0	1211433	1217461	ShowFixation	ANTI	109	4	False	red	600	[ 90 570 405 675]	[1350 1830  405  675]
749.545	0.2	1217461	1217700	BlankScreen	ANTI	109	4	False	red	600	[ 90 570 405 675]	[1350 1830  405  675]
749.784	1.0	1217700	1218700	ELCue	ANTI	109	4	False	red	600	[ 90 570 405 675]	[1350 1830  405  675]
751.158	6.0	1219074	1225102	ShowFixation	ANTI	110	4	False	red	180	[1035 1515  405  675]	[405 885 405 675]
757.186	0.2	1225102	1225341	BlankScreen	ANTI	110	4	False	red	180	[1035 1515  405  675]	[405 885 405 675]
757.425	1.0	1225341	1226341	ELCue	ANTI	110	4	False	red	180	[1035 1515  405  675]	[405 885 405 675]
758.832	6.0	1226748	1232776	ShowFixation	ANTI	111	4	False	red	40	[1350 1830  405  675]	[ 90 570 405 675]
764.86	0.2	1232776	1233016	BlankScreen	ANTI	111	4	False	red	40	[1350 1830  405  675]	[ 90 570 405 675]
765.1	1.0	1233016	1234016	ELCue	ANTI	111	4	False	red	40	[1350 1830  405  675]	[ 90 570 405 675]
766.473	6.0	1234389	1240417	ShowFixation	ANTI	112	4	False	red	180	[1035 1515  405  675]	[405 885 405 675]
772.501	0.2	1240417	1240656	BlankScreen	ANTI	112	4	False	red	180	[1035 1515  405  675]	[405 885 405 675]
772.74	1.0	1240656	1241656	ELCue	ANTI	112	4	False	red	180	[1035 1515  405  675]	[405 885 405 675]
