participant_id	trial_type	stop_signal_delay	go_reaction_time	correct_go	successful_stop
sub-23971	Go	n/a	0.666	1	n/a
sub-23971	Stop	0.750	n/a	0	1
sub-23971	Go	n/a	0.768	1	n/a
sub-23971	Go	n/a	0.606	1	n/a
sub-23971	Go	n/a	0.522	1	n/a
sub-23971	Go	n/a	0.663	1	n/a
sub-23971	Stop	0.700	n/a	0	0
sub-23971	Go	n/a	0.561	1	n/a
sub-23971	Stop	0.750	n/a	0	1
sub-23971	Stop	0.700	n/a	0	0
sub-23971	Go	n/a	0.864	1	n/a
sub-23971	Stop	0.750	n/a	0	0
sub-23971	Go	n/a	0.627	1	n/a
sub-23971	Stop	0.800	n/a	0	1
sub-23971	Go	n/a	0.653	1	n/a
sub-23971	Go	n/a	0.678	1	n/a
sub-23971	Stop	0.750	n/a	0	1
sub-23971	Go	n/a	0.644	1	n/a
sub-23971	Stop	0.700	n/a	0	1
sub-23971	Go	n/a	0.591	1	n/a
sub-23971	Stop	0.650	n/a	0	1
sub-23971	Go	n/a	0.562	1	n/a
sub-23971	Go	n/a	0.911	1	n/a
sub-23971	Go	n/a	0.662	1	n/a
sub-23971	Go	n/a	0.802	1	n/a
sub-23971	Go	n/a	0.745	1	n/a
sub-23971	Stop	0.600	n/a	0	0
sub-23971	Stop	0.650	n/a	0	1
sub-23971	Go	n/a	0.773	1	n/a
sub-23971	Go	n/a	0.816	1	n/a
sub-23971	Go	n/a	0.772	1	n/a
sub-23971	Go	n/a	0.723	1	n/a
sub-23971	Stop	0.600	n/a	0	1
sub-23971	Go	n/a	0.997	1	n/a
sub-23971	Go	n/a	0.599	1	n/a
sub-23971	Go	n/a	0.649	1	n/a
sub-23971	Go	n/a	0.844	1	n/a
sub-23971	Stop	0.550	n/a	0	1
sub-23971	Go	n/a	0.818	1	n/a
sub-23971	Stop	0.500	n/a	0	1
sub-23971	Go	n/a	0.803	1	n/a
sub-23971	Go	n/a	0.718	1	n/a
sub-23971	Go	n/a	0.713	1	n/a
sub-23971	Go	n/a	0.837	1	n/a
sub-23971	Go	n/a	0.875	1	n/a
sub-23971	Stop	0.450	n/a	0	1
sub-23971	Stop	0.400	n/a	0	0
sub-23971	Go	n/a	n/a	0	n/a
sub-23971	Go	n/a	0.777	1	n/a
sub-23971	Go	n/a	0.535	1	n/a
sub-23971	Go	n/a	0.626	1	n/a
sub-23971	Stop	0.450	n/a	0	0
sub-23971	Go	n/a	0.608	1	n/a
sub-23971	Stop	0.500	n/a	0	1
sub-23971	Go	n/a	0.828	1	n/a
sub-23971	Go	n/a	0.655	1	n/a
sub-23971	Stop	0.450	n/a	0	1
sub-23971	Go	n/a	0.818	1	n/a
sub-23971	Go	n/a	n/a	0	n/a
sub-23971	Go	n/a	0.548	1	n/a
sub-23971	Go	n/a	0.546	1	n/a
sub-23971	Go	n/a	0.764	1	n/a
sub-23971	Go	n/a	0.653	1	n/a
sub-23971	Go	n/a	0.848	1	n/a
sub-23971	Stop	0.400	0.389	1	0
sub-23971	Go	n/a	0.769	1	n/a
sub-23971	Go	n/a	0.626	1	n/a
sub-23971	Go	n/a	0.659	1	n/a
sub-23971	Go	n/a	0.568	1	n/a
sub-23971	Go	n/a	0.664	1	n/a
sub-23971	Stop	0.450	n/a	0	0
sub-23971	Go	n/a	0.496	1	n/a
sub-23971	Go	n/a	0.591	1	n/a
sub-23971	Go	n/a	0.816	1	n/a
sub-23971	Go	n/a	0.856	1	n/a
sub-23971	Stop	0.500	n/a	0	1
sub-23971	Go	n/a	0.657	1	n/a
sub-23971	Go	n/a	0.659	1	n/a
sub-23971	Go	n/a	0.650	1	n/a
sub-23971	Go	n/a	0.930	1	n/a
sub-23971	Go	n/a	0.680	1	n/a
sub-23971	Stop	0.450	n/a	0	1
sub-23971	Go	n/a	0.670	1	n/a
sub-23971	Stop	0.400	n/a	0	0
sub-23971	Stop	0.450	n/a	0	0
sub-23971	Go	n/a	0.563	1	n/a
sub-23971	Stop	0.500	n/a	0	0
sub-23971	Go	n/a	0.808	1	n/a
sub-23971	Go	n/a	0.579	1	n/a
sub-23971	Go	n/a	0.822	1	n/a
sub-23971	Stop	0.550	n/a	0	0
sub-23971	Go	n/a	0.791	1	n/a
sub-23971	Go	n/a	0.593	1	n/a
sub-23971	Go	n/a	0.912	1	n/a
sub-23971	Go	n/a	0.846	1	n/a
sub-23971	Go	n/a	0.835	1	n/a
sub-23971	Go	n/a	0.930	1	n/a
sub-23971	Go	n/a	0.796	1	n/a
sub-23971	Go	n/a	0.638	1	n/a
sub-23971	Go	n/a	0.548	1	n/a
sub-23971	Go	n/a	0.586	1	n/a
sub-23971	Go	n/a	0.770	1	n/a
sub-23971	Stop	0.600	n/a	0	1
sub-23971	Go	n/a	0.801	1	n/a
sub-23971	Go	n/a	0.694	1	n/a
sub-23971	Go	n/a	0.608	1	n/a
sub-23971	Stop	0.750	n/a	0	1
sub-23971	Go	n/a	0.601	1	n/a
sub-23971	Go	n/a	0.631	1	n/a
sub-23971	Go	n/a	0.758	1	n/a
sub-23971	Stop	0.700	n/a	0	1
sub-23971	Go	n/a	0.554	1	n/a
sub-23971	Go	n/a	0.752	1	n/a
sub-23971	Go	n/a	0.465	1	n/a
sub-23971	Go	n/a	0.544	1	n/a
sub-23971	Stop	0.650	n/a	0	1
sub-23971	Go	n/a	0.652	1	n/a
sub-23971	Stop	0.600	n/a	0	1
sub-23971	Go	n/a	0.606	1	n/a
sub-23971	Go	n/a	0.833	1	n/a
sub-23971	Stop	0.550	n/a	0	1
sub-23971	Go	n/a	0.546	1	n/a
sub-23971	Go	n/a	0.651	1	n/a
sub-23971	Stop	0.500	n/a	0	0
sub-23971	Go	n/a	0.687	1	n/a
sub-23971	Go	n/a	0.973	1	n/a
sub-23971	Go	n/a	0.852	1	n/a
sub-23971	Go	n/a	0.827	1	n/a
sub-23971	Go	n/a	0.681	1	n/a
sub-23971	Go	n/a	0.597	1	n/a
sub-23971	Go	n/a	0.803	1	n/a
sub-23971	Go	n/a	0.845	1	n/a
sub-23971	Stop	0.550	n/a	0	1
sub-23971	Stop	0.500	n/a	0	1
sub-23971	Go	n/a	0.812	1	n/a
sub-23971	Go	n/a	0.561	1	n/a
sub-23971	Go	n/a	0.624	1	n/a
sub-23971	Stop	0.450	n/a	0	1
sub-23971	Stop	0.400	n/a	0	1
sub-23971	Stop	0.350	0.646	1	0
sub-23971	Stop	0.400	n/a	0	1
sub-23971	Go	n/a	0.848	1	n/a
sub-23971	Go	n/a	0.743	1	n/a
sub-23971	Stop	0.350	0.596	1	0
sub-23971	Stop	0.400	n/a	0	1
sub-23971	Go	n/a	0.797	1	n/a
sub-23971	Go	n/a	0.646	1	n/a
sub-23971	Go	n/a	0.936	1	n/a
sub-23971	Go	n/a	0.913	1	n/a
sub-23971	Go	n/a	0.685	1	n/a
sub-23971	Stop	0.350	n/a	0	1
sub-23971	Go	n/a	0.840	1	n/a
sub-23971	Go	n/a	0.715	1	n/a
sub-23971	Go	n/a	0.733	1	n/a
sub-23971	Go	n/a	0.869	1	n/a
sub-23971	Go	n/a	0.574	1	n/a
sub-23971	Go	n/a	0.689	1	n/a
sub-23971	Go	n/a	0.614	1	n/a
sub-23971	Go	n/a	0.803	1	n/a
sub-23971	Go	n/a	0.490	0	n/a
sub-23971	Stop	0.300	n/a	0	0
sub-23971	Go	n/a	0.487	1	n/a
sub-23971	Go	n/a	0.766	1	n/a
sub-23971	Go	n/a	0.716	1	n/a
sub-23971	Go	n/a	0.703	1	n/a
sub-23971	Go	n/a	0.825	1	n/a
sub-23971	Go	n/a	0.589	1	n/a
sub-23971	Go	n/a	0.580	1	n/a
sub-23971	Go	n/a	0.629	1	n/a
sub-23971	Go	n/a	0.728	1	n/a
sub-23971	Stop	0.350	n/a	0	0
sub-23971	Go	n/a	0.574	1	n/a
sub-23971	Go	n/a	0.811	1	n/a
sub-23971	Stop	0.400	n/a	0	1
sub-23971	Go	n/a	0.770	1	n/a
sub-23971	Stop	0.350	n/a	0	0
sub-23971	Stop	0.400	n/a	0	0
sub-23971	Go	n/a	0.807	1	n/a
sub-23971	Go	n/a	0.727	1	n/a
sub-23971	Go	n/a	0.867	1	n/a
sub-23971	Go	n/a	0.869	1	n/a
sub-23971	Go	n/a	0.925	1	n/a
sub-23971	Go	n/a	0.817	1	n/a
sub-23971	Go	n/a	n/a	0	n/a
sub-23971	Go	n/a	0.992	1	n/a
sub-23971	Go	n/a	0.615	1	n/a
sub-23971	Go	n/a	0.526	1	n/a
sub-23971	Go	n/a	0.684	1	n/a
sub-23971	Stop	0.450	n/a	0	0
sub-23971	Stop	0.500	0.448	1	0
sub-23971	Go	n/a	0.529	1	n/a
sub-23971	Go	n/a	0.752	1	n/a
sub-23971	Stop	0.750	n/a	0	1
sub-23971	Stop	0.700	n/a	0	0
sub-23971	Stop	0.750	n/a	0	1
sub-23971	Go	n/a	0.637	1	n/a
sub-23971	Go	n/a	0.528	1	n/a
sub-23971	Go	n/a	0.716	1	n/a
sub-23971	Go	n/a	0.602	1	n/a
sub-23971	Stop	0.700	n/a	0	1
sub-23971	Go	n/a	0.553	1	n/a
sub-23971	Go	n/a	0.680	1	n/a
sub-23971	Go	n/a	0.649	1	n/a
sub-23971	Go	n/a	0.764	1	n/a
sub-23971	Go	n/a	0.940	1	n/a
sub-23971	Go	n/a	0.674	1	n/a
sub-23971	Stop	0.650	n/a	0	1
sub-23971	Go	n/a	0.815	1	n/a
sub-23971	Go	n/a	0.760	1	n/a
sub-23971	Go	n/a	0.810	1	n/a
sub-23971	Go	n/a	0.649	1	n/a
sub-23971	Go	n/a	n/a	0	n/a
sub-23971	Stop	0.600	n/a	0	0
sub-23971	Stop	0.650	n/a	0	0
sub-23971	Go	n/a	0.620	1	n/a
sub-23971	Go	n/a	0.801	1	n/a
sub-23971	Go	n/a	0.722	1	n/a
sub-23971	Go	n/a	0.548	1	n/a
sub-23971	Go	n/a	0.487	1	n/a
sub-23971	Go	n/a	0.742	1	n/a
sub-23971	Go	n/a	0.652	1	n/a
sub-23971	Go	n/a	0.895	1	n/a
sub-23971	Go	n/a	0.801	1	n/a
sub-23971	Go	n/a	n/a	0	n/a
sub-23971	Go	n/a	0.740	1	n/a
sub-23971	Go	n/a	0.680	1	n/a
sub-23971	Stop	0.700	n/a	0	1
sub-23971	Go	n/a	0.637	1	n/a
sub-23971	Go	n/a	0.735	1	n/a
sub-23971	Stop	0.650	n/a	0	1
sub-23971	Go	n/a	0.631	1	n/a
sub-23971	Go	n/a	0.684	1	n/a
sub-23971	Stop	0.600	n/a	0	1
sub-23971	Go	n/a	0.672	1	n/a
sub-23971	Go	n/a	0.856	1	n/a
sub-23971	Go	n/a	0.669	1	n/a
sub-23971	Stop	0.550	n/a	0	1
sub-23971	Go	n/a	0.449	1	n/a
sub-23971	Stop	0.500	n/a	0	0
sub-23971	Go	n/a	0.669	1	n/a
sub-23971	Go	n/a	0.596	1	n/a
sub-23971	Go	n/a	0.585	1	n/a
sub-23971	Go	n/a	0.661	1	n/a
sub-23971	Go	n/a	0.593	0	n/a
sub-23971	Go	n/a	0.702	1	n/a
sub-23971	Go	n/a	0.836	1	n/a
sub-23971	Go	n/a	0.574	1	n/a
sub-23971	Go	n/a	0.757	1	n/a
sub-23971	Go	n/a	0.726	1	n/a
sub-23971	Go	n/a	0.684	1	n/a
sub-23971	Go	n/a	0.592	1	n/a
sub-23971	Go	n/a	0.530	1	n/a
sub-23971	Go	n/a	0.400	1	n/a
sub-23971	Go	n/a	0.504	1	n/a
sub-23971	Go	n/a	0.553	1	n/a
sub-23971	Stop	0.550	n/a	0	1
sub-23971	Go	n/a	0.832	1	n/a
sub-23971	Stop	0.500	n/a	0	1
sub-23971	Go	n/a	0.585	1	n/a
sub-23971	Stop	0.450	n/a	0	1
sub-23971	Go	n/a	0.751	1	n/a
sub-23971	Go	n/a	0.952	1	n/a
sub-23971	Stop	0.400	0.598	1	0
sub-23971	Go	n/a	0.740	1	n/a
sub-23971	Go	n/a	0.868	1	n/a
sub-23971	Stop	0.450	n/a	0	0
sub-23971	Go	n/a	0.579	1	n/a
sub-23971	Go	n/a	0.874	1	n/a
sub-23971	Go	n/a	0.646	1	n/a
sub-23971	Go	n/a	0.556	1	n/a
sub-23971	Stop	0.500	n/a	0	1
sub-23971	Go	n/a	0.649	1	n/a
sub-23971	Go	n/a	0.741	1	n/a
sub-23971	Go	n/a	0.663	1	n/a
sub-23971	Stop	0.450	0.408	1	0
sub-23971	Stop	0.500	n/a	0	1
sub-23971	Go	n/a	0.763	1	n/a
sub-23971	Stop	0.450	0.521	1	0
sub-23971	Stop	0.500	n/a	0	1
sub-23971	Go	n/a	0.761	1	n/a
sub-23971	Stop	0.750	n/a	0	1
sub-23971	Stop	0.700	n/a	0	1
sub-23971	Go	n/a	0.628	1	n/a
sub-23971	Go	n/a	0.501	1	n/a
sub-23971	Stop	0.650	n/a	0	0
sub-23971	Go	n/a	0.364	1	n/a
sub-23971	Go	n/a	0.772	1	n/a
sub-23971	Go	n/a	0.586	1	n/a
sub-23971	Stop	0.700	n/a	0	1
sub-23971	Stop	0.650	n/a	0	1
sub-23971	Go	n/a	0.483	1	n/a
sub-23971	Go	n/a	0.595	1	n/a
sub-23971	Go	n/a	0.634	1	n/a
sub-23971	Stop	0.600	n/a	0	1
sub-23971	Go	n/a	0.615	1	n/a
sub-23971	Go	n/a	0.716	1	n/a
sub-23971	Go	n/a	0.894	1	n/a
sub-23971	Go	n/a	0.663	1	n/a
sub-23971	Stop	0.550	n/a	0	1
sub-23971	Go	n/a	0.609	1	n/a
sub-23971	Go	n/a	0.923	1	n/a
sub-23971	Stop	0.500	n/a	0	1
sub-23971	Go	n/a	0.722	1	n/a
sub-23971	Go	n/a	0.690	1	n/a
sub-23971	Go	n/a	0.672	1	n/a
sub-23971	Go	n/a	0.565	1	n/a
sub-23971	Go	n/a	0.818	1	n/a
sub-23971	Go	n/a	0.768	1	n/a
sub-23971	Stop	0.450	n/a	0	0
sub-23971	Go	n/a	0.709	1	n/a
sub-23971	Go	n/a	0.779	1	n/a
sub-23971	Go	n/a	0.884	1	n/a
sub-23971	Go	n/a	0.985	1	n/a
sub-23971	Go	n/a	0.455	1	n/a
sub-23971	Go	n/a	0.710	1	n/a
sub-23971	Go	n/a	0.845	1	n/a
sub-23971	Stop	0.500	n/a	0	0
sub-23971	Stop	0.550	n/a	0	1
sub-23971	Go	n/a	0.761	1	n/a
sub-23971	Go	n/a	0.784	1	n/a
sub-23971	Go	n/a	0.755	1	n/a
sub-23971	Go	n/a	0.728	1	n/a
sub-23971	Stop	0.500	n/a	0	0
sub-23971	Go	n/a	0.742	1	n/a
sub-23971	Go	n/a	0.668	1	n/a
sub-23971	Go	n/a	0.747	1	n/a
sub-23971	Go	n/a	0.724	1	n/a
sub-23971	Go	n/a	0.877	1	n/a
sub-23971	Stop	0.550	n/a	0	1
sub-23971	Stop	0.500	n/a	0	0
sub-23971	Go	n/a	0.738	1	n/a
sub-23971	Go	n/a	0.727	1	n/a
sub-23971	Stop	0.550	n/a	0	1
sub-23971	Go	n/a	0.787	1	n/a
sub-23971	Go	n/a	0.858	1	n/a
sub-23971	Go	n/a	0.795	1	n/a
sub-23971	Stop	0.500	n/a	0	0
sub-23971	Go	n/a	0.824	1	n/a
sub-23971	Stop	0.550	n/a	0	1
sub-23971	Go	n/a	0.653	1	n/a
sub-23971	Go	n/a	0.876	1	n/a
sub-23971	Go	n/a	0.853	1	n/a
sub-23971	Go	n/a	0.730	1	n/a
sub-23971	Go	n/a	0.750	1	n/a
sub-23971	Go	n/a	0.917	1	n/a
sub-23971	Stop	0.500	n/a	0	0
sub-23971	Go	n/a	0.749	1	n/a
sub-23971	Go	n/a	0.870	1	n/a
sub-23971	Go	n/a	0.729	1	n/a
sub-23971	Go	n/a	0.872	1	n/a
sub-23971	Go	n/a	0.616	1	n/a
sub-23971	Go	n/a	0.815	1	n/a
sub-23971	Go	n/a	0.750	1	n/a
sub-23971	Stop	0.550	n/a	0	1
sub-23971	Go	n/a	0.563	1	n/a
sub-23971	Go	n/a	0.805	1	n/a
sub-23971	Go	n/a	0.739	1	n/a
sub-23971	Stop	0.500	n/a	0	1
sub-23971	Go	n/a	0.733	1	n/a
sub-23971	Go	n/a	0.766	1	n/a
sub-23971	Go	n/a	0.843	1	n/a
sub-23971	Go	n/a	0.693	1	n/a
sub-23971	Go	n/a	0.909	1	n/a
sub-23971	Go	n/a	0.661	1	n/a
sub-23971	Stop	0.450	n/a	0	1
sub-23971	Go	n/a	0.530	1	n/a
sub-23971	Stop	0.400	n/a	0	1
sub-23971	Go	n/a	0.718	1	n/a
sub-23971	Go	n/a	0.931	1	n/a
sub-23971	Stop	0.750	n/a	0	1
sub-23971	Go	n/a	n/a	0	n/a
sub-23971	Go	n/a	0.541	1	n/a
sub-23971	Go	n/a	0.598	1	n/a
sub-23971	Go	n/a	0.476	1	n/a
sub-23971	Go	n/a	0.599	1	n/a
sub-23971	Go	n/a	0.492	1	n/a
sub-23971	Go	n/a	0.465	1	n/a
sub-23971	Go	n/a	0.642	1	n/a
sub-23971	Go	n/a	0.801	1	n/a
sub-23971	Stop	0.700	n/a	0	0
sub-23971	Go	n/a	0.593	1	n/a
sub-23971	Go	n/a	0.611	1	n/a
sub-23971	Go	n/a	0.355	1	n/a
sub-23971	Go	n/a	0.374	1	n/a
sub-23971	Stop	0.750	n/a	0	0
sub-23971	Go	n/a	0.575	1	n/a
sub-23971	Go	n/a	0.526	1	n/a
sub-23971	Stop	0.800	n/a	0	1
sub-23971	Go	n/a	0.759	1	n/a
sub-23971	Go	n/a	0.436	1	n/a
sub-23971	Go	n/a	0.738	1	n/a
sub-23971	Stop	0.750	n/a	0	0
sub-23971	Stop	0.800	n/a	0	1
sub-23971	Go	n/a	0.594	1	n/a
sub-23971	Go	n/a	0.581	1	n/a
sub-23971	Stop	0.750	n/a	0	1
sub-23971	Go	n/a	0.627	1	n/a
sub-23971	Go	n/a	0.576	1	n/a
sub-23971	Go	n/a	0.645	1	n/a
sub-23971	Stop	0.700	n/a	0	1
sub-23971	Stop	0.650	n/a	0	1
sub-23971	Go	n/a	0.595	1	n/a
sub-23971	Stop	0.600	n/a	0	0
sub-23971	Stop	0.650	n/a	0	1
sub-23971	Stop	0.600	n/a	0	0
sub-23971	Go	n/a	0.622	1	n/a
sub-23971	Go	n/a	0.513	1	n/a
sub-23971	Go	n/a	0.522	1	n/a
sub-23971	Stop	0.650	n/a	0	0
sub-23971	Go	n/a	0.635	1	n/a
sub-23971	Go	n/a	0.492	1	n/a
sub-23971	Go	n/a	0.743	1	n/a
sub-23971	Go	n/a	0.494	1	n/a
sub-23971	Go	n/a	0.448	1	n/a
sub-23971	Go	n/a	0.344	0	n/a
sub-23971	Go	n/a	0.701	1	n/a
sub-23971	Go	n/a	0.510	1	n/a
sub-23971	Go	n/a	0.566	1	n/a
sub-23971	Stop	0.700	n/a	0	0
sub-23971	Stop	0.750	n/a	0	1
sub-23971	Stop	0.700	n/a	0	0
sub-23971	Go	n/a	0.528	1	n/a
sub-23971	Go	n/a	n/a	0	n/a
sub-23971	Stop	0.750	n/a	0	0
sub-23971	Stop	0.800	n/a	0	0
sub-23971	Go	n/a	0.486	1	n/a
sub-23971	Go	n/a	0.533	1	n/a
sub-23971	Go	n/a	0.639	1	n/a
sub-23971	Go	n/a	0.556	1	n/a
sub-23971	Go	n/a	0.558	1	n/a
sub-23971	Go	n/a	0.602	1	n/a
sub-23971	Go	n/a	0.702	1	n/a
sub-23971	Go	n/a	0.902	1	n/a
sub-23971	Go	n/a	0.645	1	n/a
sub-23971	Stop	0.850	n/a	0	1
sub-23971	Go	n/a	0.656	0	n/a
sub-23971	Go	n/a	0.791	1	n/a
sub-23971	Go	n/a	0.830	1	n/a
sub-23971	Go	n/a	0.347	1	n/a
sub-23971	Go	n/a	0.635	1	n/a
sub-23971	Go	n/a	0.628	1	n/a
sub-23971	Go	n/a	0.365	1	n/a
sub-23971	Go	n/a	0.767	1	n/a
sub-23971	Stop	0.800	n/a	0	1
sub-23971	Stop	0.750	n/a	0	1
sub-23971	Go	n/a	0.619	1	n/a
sub-23971	Go	n/a	0.666	1	n/a
sub-23971	Go	n/a	0.783	1	n/a
sub-23971	Go	n/a	0.620	1	n/a
sub-23971	Go	n/a	0.666	1	n/a
sub-23971	Stop	0.700	n/a	0	0
sub-23971	Go	n/a	0.468	1	n/a
sub-23971	Go	n/a	0.654	1	n/a
sub-23971	Go	n/a	0.526	1	n/a
sub-23971	Go	n/a	0.508	1	n/a
sub-23971	Go	n/a	0.538	1	n/a
