participant_id	condition	accuracy	reaction_time
sub-23891	congruent	1	1.247
sub-23891	congruent	1	0.848
sub-23891	congruent	1	0.609
sub-23891	incongruent	0	0.518
sub-23891	incongruent	1	0.813
sub-23891	congruent	1	0.620
sub-23891	congruent	1	0.626
sub-23891	congruent	1	0.730
sub-23891	congruent	1	0.733
sub-23891	incongruent	0	0.398
sub-23891	incongruent	1	0.035
sub-23891	incongruent	0	0.011
sub-23891	incongruent	1	1.027
sub-23891	incongruent	1	0.598
sub-23891	incongruent	1	0.856
sub-23891	congruent	0	0.041
sub-23891	congruent	1	0.532
sub-23891	congruent	1	0.454
sub-23891	incongruent	0	0.035
sub-23891	congruent	1	0.634
sub-23891	incongruent	1	1.994
sub-23891	congruent	1	0.475
sub-23891	congruent	1	0.939
sub-23891	incongruent	0	0.000
sub-23891	congruent	1	1.029
sub-23891	incongruent	0	1.496
sub-23891	incongruent	0	0.966
sub-23891	congruent	1	0.657
sub-23891	incongruent	1	1.246
sub-23891	incongruent	1	1.020
sub-23891	incongruent	0	0.000
sub-23891	incongruent	1	1.190
sub-23891	congruent	0	0.815
sub-23891	incongruent	1	1.025
sub-23891	incongruent	1	0.726
sub-23891	incongruent	1	0.750
sub-23891	congruent	1	0.715
sub-23891	incongruent	1	1.061
sub-23891	congruent	0	0.745
sub-23891	incongruent	0	0.758
sub-23891	congruent	1	0.571
sub-23891	congruent	1	0.277
sub-23891	congruent	1	1.006
sub-23891	incongruent	1	1.180
sub-23891	incongruent	0	0.768
sub-23891	congruent	1	1.035
sub-23891	incongruent	0	1.248
sub-23891	congruent	1	0.712
sub-23891	congruent	1	0.786
sub-23891	congruent	1	0.532
sub-23891	congruent	1	1.118
sub-23891	incongruent	0	0.715
sub-23891	congruent	1	0.845
sub-23891	congruent	1	0.663
sub-23891	incongruent	0	0.922
sub-23891	incongruent	0	0.673
sub-23891	incongruent	0	0.585
sub-23891	congruent	0	1.289
sub-23891	incongruent	0	0.443
sub-23891	congruent	1	0.402
sub-23891	incongruent	1	1.351
sub-23891	congruent	1	0.520
sub-23891	congruent	1	0.528
sub-23891	congruent	0	1.119
sub-23891	congruent	1	0.450
sub-23891	congruent	0	0.540
sub-23891	incongruent	1	0.598
sub-23891	incongruent	1	0.495
sub-23891	incongruent	1	0.743
sub-23891	incongruent	1	0.695
sub-23891	incongruent	1	0.717
sub-23891	incongruent	1	0.785
sub-23891	incongruent	1	0.653
sub-23891	incongruent	1	0.802
sub-23891	incongruent	1	0.695
sub-23891	congruent	0	0.841
sub-23891	congruent	0	0.623
sub-23891	incongruent	1	0.773
sub-23891	congruent	1	0.520
sub-23891	incongruent	0	0.589
sub-23891	incongruent	0	0.673
sub-23891	incongruent	0	0.634
sub-23891	congruent	1	0.601
sub-23891	congruent	1	0.458
sub-23891	congruent	1	0.526
sub-23891	incongruent	1	0.299
sub-23891	congruent	1	0.711
sub-23891	incongruent	0	0.562
sub-23891	congruent	1	0.699
sub-23891	congruent	1	0.733
sub-23891	congruent	1	0.765
sub-23891	congruent	1	0.667
sub-23891	incongruent	0	0.690
sub-23891	congruent	1	0.617
sub-23891	congruent	1	0.559
sub-23891	congruent	1	0.843
sub-23891	incongruent	0	0.684
sub-23891	congruent	0	0.630
sub-23891	congruent	0	0.567
sub-23891	congruent	1	0.488
sub-23891	congruent	1	0.635
sub-23891	incongruent	0	0.785
sub-23891	congruent	1	1.142
sub-23891	incongruent	0	0.518
sub-23891	incongruent	0	0.618
sub-23891	incongruent	0	0.664
sub-23891	incongruent	1	0.247
sub-23891	congruent	1	0.424
sub-23891	congruent	1	0.674
sub-23891	incongruent	0	0.708
sub-23891	incongruent	0	0.447
sub-23891	congruent	1	0.631
sub-23891	congruent	1	0.563
sub-23891	congruent	1	0.583
sub-23891	incongruent	0	0.595
sub-23891	incongruent	0	0.746
sub-23891	incongruent	0	0.656
sub-23891	incongruent	0	0.582
sub-23891	incongruent	0	0.670
sub-23891	congruent	1	0.637
sub-23891	incongruent	0	0.000
sub-23891	incongruent	1	0.831
sub-23891	incongruent	1	0.701
sub-23891	incongruent	1	0.692
sub-23891	incongruent	0	0.498
sub-23891	incongruent	1	0.711
sub-23891	congruent	0	1.175
sub-23891	incongruent	0	0.000
sub-23891	congruent	1	1.742
sub-23891	congruent	1	0.698
sub-23891	incongruent	0	0.764
sub-23891	congruent	1	0.599
sub-23891	incongruent	0	0.861
sub-23891	congruent	1	0.630
sub-23891	incongruent	0	0.785
sub-23891	congruent	1	0.798
sub-23891	congruent	1	0.632
sub-23891	congruent	1	0.548
sub-23891	congruent	1	0.449
sub-23891	congruent	1	0.362
sub-23891	congruent	1	0.180
sub-23891	incongruent	0	0.515
sub-23891	congruent	1	0.617
sub-23891	congruent	1	0.714
sub-23891	congruent	1	0.848
sub-23891	incongruent	0	1.177
sub-23891	congruent	1	1.290
sub-23891	congruent	1	0.989
sub-23891	incongruent	0	1.407
sub-23891	incongruent	0	0.999
sub-23891	congruent	1	0.628
sub-23891	congruent	1	0.555
sub-23891	congruent	1	0.529
sub-23891	incongruent	0	1.314
sub-23891	congruent	1	0.664
sub-23891	incongruent	0	1.030
sub-23891	incongruent	0	1.000
sub-23891	congruent	1	0.776
sub-23891	incongruent	0	1.047
sub-23891	congruent	1	0.707
sub-23891	congruent	1	0.661
sub-23891	incongruent	0	0.545
sub-23891	incongruent	0	0.836
sub-23891	incongruent	0	0.656
sub-23891	congruent	1	0.393
sub-23891	congruent	1	0.329
sub-23891	incongruent	0	0.770
sub-23891	incongruent	0	1.029
sub-23891	congruent	1	0.535
sub-23891	incongruent	0	1.025
sub-23891	congruent	1	0.580
sub-23891	incongruent	0	0.785
sub-23891	incongruent	0	0.563
sub-23891	incongruent	0	0.729
sub-23891	incongruent	0	0.533
sub-23891	congruent	1	0.453
sub-23891	congruent	1	0.366
sub-23891	incongruent	0	0.577
sub-23891	incongruent	0	0.702
sub-23891	congruent	1	0.534
sub-23891	congruent	1	1.180
sub-23891	incongruent	0	0.776
sub-23891	congruent	1	0.598
sub-23891	congruent	1	0.397
sub-23891	congruent	1	0.455
sub-23891	incongruent	1	0.265
sub-23891	incongruent	0	0.424
sub-23891	congruent	1	0.574
sub-23891	congruent	1	0.470
sub-23891	incongruent	0	0.424
sub-23891	incongruent	0	1.011
sub-23891	incongruent	0	0.473
sub-23891	incongruent	0	1.373
sub-23891	incongruent	1	0.800
sub-23891	congruent	1	0.588
sub-23891	congruent	1	1.016
sub-23891	congruent	1	0.532
sub-23891	congruent	1	1.193
sub-23891	incongruent	0	0.502
sub-23891	congruent	1	0.440
sub-23891	incongruent	0	0.942
sub-23891	congruent	0	0.312
sub-23891	congruent	1	1.110
sub-23891	congruent	1	1.428
sub-23891	incongruent	0	1.755
sub-23891	congruent	1	0.462
sub-23891	congruent	1	0.107
sub-23891	congruent	1	0.181
sub-23891	incongruent	0	0.191
sub-23891	incongruent	0	0.290
sub-23891	incongruent	0	1.065
sub-23891	congruent	1	0.629
sub-23891	congruent	1	0.370
sub-23891	incongruent	1	0.311
sub-23891	incongruent	0	0.549
sub-23891	incongruent	0	0.730
sub-23891	incongruent	1	0.019
sub-23891	congruent	1	0.533
sub-23891	incongruent	0	0.658
sub-23891	incongruent	0	0.679
sub-23891	incongruent	0	0.551
sub-23891	congruent	1	0.496
sub-23891	congruent	1	0.594
sub-23891	incongruent	0	0.249
sub-23891	incongruent	0	0.573
sub-23891	incongruent	0	0.765
sub-23891	incongruent	0	0.664
sub-23891	incongruent	0	0.517
sub-23891	congruent	1	0.780
sub-23891	congruent	1	0.527
sub-23891	congruent	1	0.670
sub-23891	incongruent	0	0.481
sub-23891	congruent	0	0.023
sub-23891	congruent	1	0.495
sub-23891	incongruent	0	1.030
sub-23891	congruent	1	0.358
sub-23891	incongruent	0	0.636
sub-23891	congruent	1	0.309
sub-23891	incongruent	0	0.261
sub-23891	congruent	1	0.017
