onset	duration	startTime	stopTime	eventIdentifier	trial_type	trial_number	block_number	is_practice	fixation_color	cue_side	aoi_correct	aoi_incorrect
0.14	6.0	538998	545025	ShowFixation	ANTI	1	1	True	red	180	[1035 1515  405  675]	[405 885 405 675]
6.167	0.2	545025	545264	BlankScreen	ANTI	1	1	True	red	180	[1035 1515  405  675]	[405 885 405 675]
6.406	1.0	545264	546305	ELCue	ANTI	1	1	True	red	180	[1035 1515  405  675]	[405 885 405 675]
7.849	2.0	546707	549350	ShowFixation	ANTI	2	1	True	red	600	[ 90 570 405 675]	[1350 1830  405  675]
10.492	0.2	549350	549585	BlankScreen	ANTI	2	1	True	red	600	[ 90 570 405 675]	[1350 1830  405  675]
10.727	1.0	549585	550626	ELCue	ANTI	2	1	True	red	600	[ 90 570 405 675]	[1350 1830  405  675]
12.173	6.0	551031	557671	ShowFixation	VGS	3	1	True	lime	600	[1350 1830  405  675]	[ 90 570 405 675]
18.813	0.2	557671	557910	BlankScreen	VGS	3	1	True	lime	600	[1350 1830  405  675]	[ 90 570 405 675]
19.052	1.0	557910	558947	ELCue	VGS	3	1	True	lime	600	[1350 1830  405  675]	[ 90 570 405 675]
20.482	2.0	559340	561962	ShowFixation	VGS	4	1	True	lime	180	[405 885 405 675]	[1035 1515  405  675]
23.104	0.2	561962	562181	BlankScreen	VGS	4	1	True	lime	180	[405 885 405 675]	[1035 1515  405  675]
23.323	1.0	562181	563205	ELCue	VGS	4	1	True	lime	180	[405 885 405 675]	[1035 1515  405  675]
24.749	6.0	563607	570250	ShowFixation	ANTI	5	1	True	red	600	[ 90 570 405 675]	[1350 1830  405  675]
31.392	0.2	570250	570489	BlankScreen	ANTI	5	1	True	red	600	[ 90 570 405 675]	[1350 1830  405  675]
31.631	1.0	570489	571530	ELCue	ANTI	5	1	True	red	600	[ 90 570 405 675]	[1350 1830  405  675]
33.078	2.0	571936	574575	ShowFixation	VGS	6	1	True	lime	460	[1035 1515  405  675]	[405 885 405 675]
35.717	0.2	574575	574810	BlankScreen	VGS	6	1	True	lime	460	[1035 1515  405  675]	[405 885 405 675]
35.952	1.0	574810	575851	ELCue	VGS	6	1	True	lime	460	[1035 1515  405  675]	[405 885 405 675]
37.39	6.0	576248	582896	ShowFixation	ANTI	7	1	True	red	40	[1350 1830  405  675]	[ 90 570 405 675]
44.038	0.2	582896	583135	BlankScreen	ANTI	7	1	True	red	40	[1350 1830  405  675]	[ 90 570 405 675]
44.277	1.0	583135	584173	ELCue	ANTI	7	1	True	red	40	[1350 1830  405  675]	[ 90 570 405 675]
45.724	2.0	584582	587221	ShowFixation	VGS	8	1	True	lime	600	[1350 1830  405  675]	[ 90 570 405 675]
48.363	0.2	587221	587456	BlankScreen	VGS	8	1	True	lime	600	[1350 1830  405  675]	[ 90 570 405 675]
48.598	1.0	587456	588497	ELCue	VGS	8	1	True	lime	600	[1350 1830  405  675]	[ 90 570 405 675]
50.043	2.0	588901	591542	ShowFixation	ANTI	9	1	True	red	180	[1035 1515  405  675]	[405 885 405 675]
52.684	0.2	591542	591777	BlankScreen	ANTI	9	1	True	red	180	[1035 1515  405  675]	[405 885 405 675]
52.919	1.0	591777	592815	ELCue	ANTI	9	1	True	red	180	[1035 1515  405  675]	[405 885 405 675]
54.36	2.0	593218	595863	ShowFixation	ANTI	10	1	True	red	460	[405 885 405 675]	[1035 1515  405  675]
57.005	0.2	595863	596098	BlankScreen	ANTI	10	1	True	red	460	[405 885 405 675]	[1035 1515  405  675]
57.24	1.0	596098	597139	ELCue	ANTI	10	1	True	red	460	[405 885 405 675]	[1035 1515  405  675]
58.685	6.0	597543	604183	ShowFixation	VGS	11	1	True	lime	180	[405 885 405 675]	[1035 1515  405  675]
65.325	0.2	604183	604423	BlankScreen	VGS	11	1	True	lime	180	[405 885 405 675]	[1035 1515  405  675]
65.565	1.0	604423	605464	ELCue	VGS	11	1	True	lime	180	[405 885 405 675]	[1035 1515  405  675]
67.009	6.0	605867	612508	ShowFixation	VGS	12	1	True	lime	40	[ 90 570 405 675]	[1350 1830  405  675]
73.65	0.2	612508	612748	BlankScreen	VGS	12	1	True	lime	40	[ 90 570 405 675]	[1350 1830  405  675]
73.891	1.0	612749	613789	ELCue	VGS	12	1	True	lime	40	[ 90 570 405 675]	[1350 1830  405  675]
75.334	6.0	614192	620834	ShowFixation	ANTI	13	1	True	red	460	[405 885 405 675]	[1035 1515  405  675]
81.976	0.2	620834	621074	BlankScreen	ANTI	13	1	True	red	460	[405 885 405 675]	[1035 1515  405  675]
82.216	1.0	621074	622114	ELCue	ANTI	13	1	True	red	460	[405 885 405 675]	[1035 1515  405  675]
83.662	6.0	622520	629159	ShowFixation	VGS	14	1	True	lime	460	[1035 1515  405  675]	[405 885 405 675]
90.301	0.2	629159	629398	BlankScreen	VGS	14	1	True	lime	460	[1035 1515  405  675]	[405 885 405 675]
90.54	1.0	629398	630439	ELCue	VGS	14	1	True	lime	460	[1035 1515  405  675]	[405 885 405 675]
91.988	2.0	630846	633484	ShowFixation	ANTI	15	1	True	red	40	[1350 1830  405  675]	[ 90 570 405 675]
94.626	0.2	633484	633719	BlankScreen	ANTI	15	1	True	red	40	[1350 1830  405  675]	[ 90 570 405 675]
94.861	1.0	633719	634759	ELCue	ANTI	15	1	True	red	40	[1350 1830  405  675]	[ 90 570 405 675]
96.271	2.0	635129	637788	ShowFixation	VGS	16	1	True	lime	40	[ 90 570 405 675]	[1350 1830  405  675]
98.93	0.2	637788	638007	BlankScreen	VGS	16	1	True	lime	40	[ 90 570 405 675]	[1350 1830  405  675]
99.149	1.0	638007	639030	ELCue	VGS	16	1	True	lime	40	[ 90 570 405 675]	[1350 1830  405  675]
137.462	6.0	676320	682345	ShowFixation	VGS	17	2	False	lime	600	[1350 1830  405  675]	[ 90 570 405 675]
143.487	0.2	682345	682584	BlankScreen	VGS	17	2	False	lime	600	[1350 1830  405  675]	[ 90 570 405 675]
143.726	1.0	682584	683584	ELCue	VGS	17	2	False	lime	600	[1350 1830  405  675]	[ 90 570 405 675]
145.132	2.0	683990	686019	ShowFixation	ANTI	18	2	False	red	180	[1035 1515  405  675]	[405 885 405 675]
147.161	0.2	686019	686255	BlankScreen	ANTI	18	2	False	red	180	[1035 1515  405  675]	[405 885 405 675]
147.397	1.0	686255	687255	ELCue	ANTI	18	2	False	red	180	[1035 1515  405  675]	[405 885 405 675]
148.808	6.0	687666	693706	ShowFixation	VGS	19	2	False	lime	180	[405 885 405 675]	[1035 1515  405  675]
154.848	0.2	693706	693946	BlankScreen	VGS	19	2	False	lime	180	[405 885 405 675]	[1035 1515  405  675]
155.088	1.0	693946	694946	ELCue	VGS	19	2	False	lime	180	[405 885 405 675]	[1035 1515  405  675]
156.501	2.0	695359	697397	ShowFixation	ANTI	20	2	False	red	40	[1350 1830  405  675]	[ 90 570 405 675]
158.539	0.2	697397	697633	BlankScreen	ANTI	20	2	False	red	40	[1350 1830  405  675]	[ 90 570 405 675]
158.775	1.0	697633	698633	ELCue	ANTI	20	2	False	red	40	[1350 1830  405  675]	[ 90 570 405 675]
160.183	2.0	699041	701067	ShowFixation	VGS	21	2	False	lime	460	[1035 1515  405  675]	[405 885 405 675]
162.209	0.2	701067	701303	BlankScreen	VGS	21	2	False	lime	460	[1035 1515  405  675]	[405 885 405 675]
162.445	1.0	701303	702303	ELCue	VGS	21	2	False	lime	460	[1035 1515  405  675]	[405 885 405 675]
163.854	2.0	702712	704738	ShowFixation	VGS	22	2	False	lime	180	[405 885 405 675]	[1035 1515  405  675]
165.88	0.2	704738	704973	BlankScreen	VGS	22	2	False	lime	180	[405 885 405 675]	[1035 1515  405  675]
166.115	1.0	704973	705973	ELCue	VGS	22	2	False	lime	180	[405 885 405 675]	[1035 1515  405  675]
167.523	2.0	706381	708408	ShowFixation	ANTI	23	2	False	red	460	[405 885 405 675]	[1035 1515  405  675]
169.55	0.2	708408	708643	BlankScreen	ANTI	23	2	False	red	460	[405 885 405 675]	[1035 1515  405  675]
169.785	1.0	708643	709643	ELCue	ANTI	23	2	False	red	460	[405 885 405 675]	[1035 1515  405  675]
171.171	2.0	710029	712062	ShowFixation	VGS	24	2	False	lime	600	[1350 1830  405  675]	[ 90 570 405 675]
173.204	0.2	712062	712297	BlankScreen	VGS	24	2	False	lime	600	[1350 1830  405  675]	[ 90 570 405 675]
173.439	1.0	712297	713297	ELCue	VGS	24	2	False	lime	600	[1350 1830  405  675]	[ 90 570 405 675]
174.855	6.0	713713	719749	ShowFixation	VGS	25	2	False	lime	460	[1035 1515  405  675]	[405 885 405 675]
180.891	0.2	719749	719988	BlankScreen	VGS	25	2	False	lime	460	[1035 1515  405  675]	[405 885 405 675]
181.13	1.0	719988	720988	ELCue	VGS	25	2	False	lime	460	[1035 1515  405  675]	[405 885 405 675]
182.535	2.0	721393	723423	ShowFixation	ANTI	26	2	False	red	180	[1035 1515  405  675]	[405 885 405 675]
184.565	0.2	723423	723658	BlankScreen	ANTI	26	2	False	red	180	[1035 1515  405  675]	[405 885 405 675]
184.8	1.0	723658	724658	ELCue	ANTI	26	2	False	red	180	[1035 1515  405  675]	[405 885 405 675]
186.209	6.0	725067	731093	ShowFixation	VGS	27	2	False	lime	460	[1035 1515  405  675]	[405 885 405 675]
192.235	0.2	731093	731333	BlankScreen	VGS	27	2	False	lime	460	[1035 1515  405  675]	[405 885 405 675]
192.475	1.0	731333	732333	ELCue	VGS	27	2	False	lime	460	[1035 1515  405  675]	[405 885 405 675]
193.875	2.0	732733	734767	ShowFixation	VGS	28	2	False	lime	600	[1350 1830  405  675]	[ 90 570 405 675]
195.909	0.2	734767	735003	BlankScreen	VGS	28	2	False	lime	600	[1350 1830  405  675]	[ 90 570 405 675]
196.146	1.0	735004	736004	ELCue	VGS	28	2	False	lime	600	[1350 1830  405  675]	[ 90 570 405 675]
197.549	6.0	736407	742438	ShowFixation	ANTI	29	2	False	red	40	[1350 1830  405  675]	[ 90 570 405 675]
203.581	0.2	742439	742677	BlankScreen	ANTI	29	2	False	red	40	[1350 1830  405  675]	[ 90 570 405 675]
203.82	1.0	742678	743678	ELCue	ANTI	29	2	False	red	40	[1350 1830  405  675]	[ 90 570 405 675]
205.232	2.0	744090	746130	ShowFixation	VGS	30	2	False	lime	460	[1035 1515  405  675]	[405 885 405 675]
207.272	0.2	746130	746365	BlankScreen	VGS	30	2	False	lime	460	[1035 1515  405  675]	[405 885 405 675]
207.507	1.0	746365	747365	ELCue	VGS	30	2	False	lime	460	[1035 1515  405  675]	[405 885 405 675]
208.918	6.0	747776	753817	ShowFixation	ANTI	31	2	False	red	600	[ 90 570 405 675]	[1350 1830  405  675]
214.959	0.2	753817	754056	BlankScreen	ANTI	31	2	False	red	600	[ 90 570 405 675]	[1350 1830  405  675]
215.198	1.0	754056	755056	ELCue	ANTI	31	2	False	red	600	[ 90 570 405 675]	[1350 1830  405  675]
216.61	2.0	755468	757508	ShowFixation	ANTI	32	2	False	red	600	[ 90 570 405 675]	[1350 1830  405  675]
218.65	0.2	757508	757743	BlankScreen	ANTI	32	2	False	red	600	[ 90 570 405 675]	[1350 1830  405  675]
218.885	1.0	757743	758743	ELCue	ANTI	32	2	False	red	600	[ 90 570 405 675]	[1350 1830  405  675]
220.295	6.0	759153	765178	ShowFixation	ANTI	33	2	False	red	40	[1350 1830  405  675]	[ 90 570 405 675]
226.32	0.2	765178	765417	BlankScreen	ANTI	33	2	False	red	40	[1350 1830  405  675]	[ 90 570 405 675]
226.559	1.0	765417	766417	ELCue	ANTI	33	2	False	red	40	[1350 1830  405  675]	[ 90 570 405 675]
227.969	2.0	766827	768852	ShowFixation	ANTI	34	2	False	red	460	[405 885 405 675]	[1035 1515  405  675]
229.994	0.2	768852	769087	BlankScreen	ANTI	34	2	False	red	460	[405 885 405 675]	[1035 1515  405  675]
230.229	1.0	769087	770087	ELCue	ANTI	34	2	False	red	460	[405 885 405 675]	[1035 1515  405  675]
231.642	6.0	770500	776539	ShowFixation	ANTI	35	2	False	red	180	[1035 1515  405  675]	[405 885 405 675]
237.681	0.2	776539	776778	BlankScreen	ANTI	35	2	False	red	180	[1035 1515  405  675]	[405 885 405 675]
237.92	1.0	776778	777778	ELCue	ANTI	35	2	False	red	180	[1035 1515  405  675]	[405 885 405 675]
239.334	2.0	778192	780230	ShowFixation	VGS	36	2	False	lime	40	[ 90 570 405 675]	[1350 1830  405  675]
241.372	0.2	780230	780465	BlankScreen	VGS	36	2	False	lime	40	[ 90 570 405 675]	[1350 1830  405  675]
241.607	1.0	780465	781465	ELCue	VGS	36	2	False	lime	40	[ 90 570 405 675]	[1350 1830  405  675]
242.994	6.0	781852	787884	ShowFixation	ANTI	37	2	False	red	180	[1035 1515  405  675]	[405 885 405 675]
249.026	0.2	787884	788123	BlankScreen	ANTI	37	2	False	red	180	[1035 1515  405  675]	[405 885 405 675]
249.265	1.0	788123	789123	ELCue	ANTI	37	2	False	red	180	[1035 1515  405  675]	[405 885 405 675]
250.655	2.0	789513	791541	ShowFixation	ANTI	38	2	False	red	40	[1350 1830  405  675]	[ 90 570 405 675]
252.683	0.2	791541	791777	BlankScreen	ANTI	38	2	False	red	40	[1350 1830  405  675]	[ 90 570 405 675]
252.919	1.0	791777	792777	ELCue	ANTI	38	2	False	red	40	[1350 1830  405  675]	[ 90 570 405 675]
254.325	6.0	793183	799211	ShowFixation	VGS	39	2	False	lime	40	[ 90 570 405 675]	[1350 1830  405  675]
260.353	0.2	799211	799451	BlankScreen	VGS	39	2	False	lime	40	[ 90 570 405 675]	[1350 1830  405  675]
260.593	1.0	799451	800451	ELCue	VGS	39	2	False	lime	40	[ 90 570 405 675]	[1350 1830  405  675]
262.003	2.0	800861	802886	ShowFixation	ANTI	40	2	False	red	600	[ 90 570 405 675]	[1350 1830  405  675]
264.028	0.2	802886	803121	BlankScreen	ANTI	40	2	False	red	600	[ 90 570 405 675]	[1350 1830  405  675]
264.263	1.0	803121	804121	ELCue	ANTI	40	2	False	red	600	[ 90 570 405 675]	[1350 1830  405  675]
265.671	2.0	804529	806556	ShowFixation	VGS	41	2	False	lime	180	[405 885 405 675]	[1035 1515  405  675]
267.698	0.2	806556	806791	BlankScreen	VGS	41	2	False	lime	180	[405 885 405 675]	[1035 1515  405  675]
267.933	1.0	806791	807791	ELCue	VGS	41	2	False	lime	180	[405 885 405 675]	[1035 1515  405  675]
269.338	6.0	808196	814226	ShowFixation	ANTI	42	2	False	red	460	[405 885 405 675]	[1035 1515  405  675]
275.368	0.2	814226	814466	BlankScreen	ANTI	42	2	False	red	460	[405 885 405 675]	[1035 1515  405  675]
275.608	1.0	814466	815466	ELCue	ANTI	42	2	False	red	460	[405 885 405 675]	[1035 1515  405  675]
276.997	6.0	815855	821884	ShowFixation	ANTI	43	2	False	red	600	[ 90 570 405 675]	[1350 1830  405  675]
283.026	0.2	821884	822123	BlankScreen	ANTI	43	2	False	red	600	[ 90 570 405 675]	[1350 1830  405  675]
283.265	1.0	822123	823123	ELCue	ANTI	43	2	False	red	600	[ 90 570 405 675]	[1350 1830  405  675]
284.67	6.0	823528	829558	ShowFixation	VGS	44	2	False	lime	40	[ 90 570 405 675]	[1350 1830  405  675]
290.7	0.2	829558	829797	BlankScreen	VGS	44	2	False	lime	40	[ 90 570 405 675]	[1350 1830  405  675]
290.939	1.0	829797	830797	ELCue	VGS	44	2	False	lime	40	[ 90 570 405 675]	[1350 1830  405  675]
292.349	6.0	831207	837232	ShowFixation	VGS	45	2	False	lime	180	[405 885 405 675]	[1035 1515  405  675]
298.374	0.2	837232	837472	BlankScreen	VGS	45	2	False	lime	180	[405 885 405 675]	[1035 1515  405  675]
298.614	1.0	837472	838472	ELCue	VGS	45	2	False	lime	180	[405 885 405 675]	[1035 1515  405  675]
300.02	6.0	838878	844907	ShowFixation	ANTI	46	2	False	red	460	[405 885 405 675]	[1035 1515  405  675]
306.049	0.2	844907	845146	BlankScreen	ANTI	46	2	False	red	460	[405 885 405 675]	[1035 1515  405  675]
306.288	1.0	845146	846146	ELCue	ANTI	46	2	False	red	460	[405 885 405 675]	[1035 1515  405  675]
307.691	2.0	846549	848581	ShowFixation	VGS	47	2	False	lime	40	[ 90 570 405 675]	[1350 1830  405  675]
309.723	0.2	848581	848816	BlankScreen	VGS	47	2	False	lime	40	[ 90 570 405 675]	[1350 1830  405  675]
309.958	1.0	848816	849816	ELCue	VGS	47	2	False	lime	40	[ 90 570 405 675]	[1350 1830  405  675]
311.367	6.0	850225	856251	ShowFixation	VGS	48	2	False	lime	600	[1350 1830  405  675]	[ 90 570 405 675]
317.393	0.2	856251	856490	BlankScreen	VGS	48	2	False	lime	600	[1350 1830  405  675]	[ 90 570 405 675]
317.632	1.0	856490	857490	ELCue	VGS	48	2	False	lime	600	[1350 1830  405  675]	[ 90 570 405 675]
370.801	6.0	909659	915694	ShowFixation	ANTI	49	3	False	red	600	[ 90 570 405 675]	[1350 1830  405  675]
376.836	0.2	915694	915934	BlankScreen	ANTI	49	3	False	red	600	[ 90 570 405 675]	[1350 1830  405  675]
377.076	1.0	915934	916934	ELCue	ANTI	49	3	False	red	600	[ 90 570 405 675]	[1350 1830  405  675]
378.483	6.0	917341	923368	ShowFixation	VGS	50	3	False	lime	40	[ 90 570 405 675]	[1350 1830  405  675]
384.51	0.2	923368	923608	BlankScreen	VGS	50	3	False	lime	40	[ 90 570 405 675]	[1350 1830  405  675]
384.75	1.0	923608	924608	ELCue	VGS	50	3	False	lime	40	[ 90 570 405 675]	[1350 1830  405  675]
386.158	6.0	925016	931043	ShowFixation	ANTI	51	3	False	red	40	[1350 1830  405  675]	[ 90 570 405 675]
392.185	0.2	931043	931282	BlankScreen	ANTI	51	3	False	red	40	[1350 1830  405  675]	[ 90 570 405 675]
392.424	1.0	931282	932282	ELCue	ANTI	51	3	False	red	40	[1350 1830  405  675]	[ 90 570 405 675]
393.83	6.0	932688	938717	ShowFixation	VGS	52	3	False	lime	180	[405 885 405 675]	[1035 1515  405  675]
399.859	0.2	938717	938956	BlankScreen	VGS	52	3	False	lime	180	[405 885 405 675]	[1035 1515  405  675]
400.098	1.0	938956	939956	ELCue	VGS	52	3	False	lime	180	[405 885 405 675]	[1035 1515  405  675]
401.509	6.0	940367	946408	ShowFixation	VGS	53	3	False	lime	600	[1350 1830  405  675]	[ 90 570 405 675]
407.55	0.2	946408	946647	BlankScreen	VGS	53	3	False	lime	600	[1350 1830  405  675]	[ 90 570 405 675]
407.789	1.0	946647	947647	ELCue	VGS	53	3	False	lime	600	[1350 1830  405  675]	[ 90 570 405 675]
409.199	6.0	948057	954082	ShowFixation	ANTI	54	3	False	red	460	[405 885 405 675]	[1035 1515  405  675]
415.224	0.2	954082	954321	BlankScreen	ANTI	54	3	False	red	460	[405 885 405 675]	[1035 1515  405  675]
415.463	1.0	954321	955321	ELCue	ANTI	54	3	False	red	460	[405 885 405 675]	[1035 1515  405  675]
416.872	2.0	955730	957756	ShowFixation	ANTI	55	3	False	red	180	[1035 1515  405  675]	[405 885 405 675]
418.898	0.2	957756	957992	BlankScreen	ANTI	55	3	False	red	180	[1035 1515  405  675]	[405 885 405 675]
419.134	1.0	957992	958992	ELCue	ANTI	55	3	False	red	180	[1035 1515  405  675]	[405 885 405 675]
420.542	2.0	959400	961427	ShowFixation	VGS	56	3	False	lime	40	[ 90 570 405 675]	[1350 1830  405  675]
422.569	0.2	961427	961662	BlankScreen	VGS	56	3	False	lime	40	[ 90 570 405 675]	[1350 1830  405  675]
422.804	1.0	961662	962662	ELCue	VGS	56	3	False	lime	40	[ 90 570 405 675]	[1350 1830  405  675]
424.206	2.0	963064	965097	ShowFixation	ANTI	57	3	False	red	180	[1035 1515  405  675]	[405 885 405 675]
426.239	0.2	965097	965332	BlankScreen	ANTI	57	3	False	red	180	[1035 1515  405  675]	[405 885 405 675]
426.474	1.0	965332	966332	ELCue	ANTI	57	3	False	red	180	[1035 1515  405  675]	[405 885 405 675]
427.849	6.0	966707	972734	ShowFixation	ANTI	58	3	False	red	460	[405 885 405 675]	[1035 1515  405  675]
433.876	0.2	972734	972973	BlankScreen	ANTI	58	3	False	red	460	[405 885 405 675]	[1035 1515  405  675]
434.115	1.0	972973	973973	ELCue	ANTI	58	3	False	red	460	[405 885 405 675]	[1035 1515  405  675]
435.524	2.0	974382	976408	ShowFixation	VGS	59	3	False	lime	180	[405 885 405 675]	[1035 1515  405  675]
437.55	0.2	976408	976644	BlankScreen	VGS	59	3	False	lime	180	[405 885 405 675]	[1035 1515  405  675]
437.786	1.0	976644	977644	ELCue	VGS	59	3	False	lime	180	[405 885 405 675]	[1035 1515  405  675]
439.193	6.0	978051	984078	ShowFixation	VGS	60	3	False	lime	40	[ 90 570 405 675]	[1350 1830  405  675]
445.221	0.2	984079	984318	BlankScreen	VGS	60	3	False	lime	40	[ 90 570 405 675]	[1350 1830  405  675]
445.46	1.0	984318	985318	ELCue	VGS	60	3	False	lime	40	[ 90 570 405 675]	[1350 1830  405  675]
446.867	2.0	985725	987753	ShowFixation	VGS	61	3	False	lime	460	[1035 1515  405  675]	[405 885 405 675]
448.896	0.2	987754	987988	BlankScreen	VGS	61	3	False	lime	460	[1035 1515  405  675]	[405 885 405 675]
449.131	1.0	987989	988989	ELCue	VGS	61	3	False	lime	460	[1035 1515  405  675]	[405 885 405 675]
450.539	2.0	989397	991424	ShowFixation	VGS	62	3	False	lime	600	[1350 1830  405  675]	[ 90 570 405 675]
452.566	0.2	991424	991659	BlankScreen	VGS	62	3	False	lime	600	[1350 1830  405  675]	[ 90 570 405 675]
452.801	1.0	991659	992659	ELCue	VGS	62	3	False	lime	600	[1350 1830  405  675]	[ 90 570 405 675]
454.191	2.0	993049	995078	ShowFixation	ANTI	63	3	False	red	40	[1350 1830  405  675]	[ 90 570 405 675]
456.22	0.2	995078	995313	BlankScreen	ANTI	63	3	False	red	40	[1350 1830  405  675]	[ 90 570 405 675]
456.455	1.0	995313	996313	ELCue	ANTI	63	3	False	red	40	[1350 1830  405  675]	[ 90 570 405 675]
457.865	2.0	996723	998748	ShowFixation	ANTI	64	3	False	red	600	[ 90 570 405 675]	[1350 1830  405  675]
459.89	0.2	998748	998983	BlankScreen	ANTI	64	3	False	red	600	[ 90 570 405 675]	[1350 1830  405  675]
460.125	1.0	998983	999983	ELCue	ANTI	64	3	False	red	600	[ 90 570 405 675]	[1350 1830  405  675]
461.516	2.0	1000374	1002401	ShowFixation	VGS	65	3	False	lime	180	[405 885 405 675]	[1035 1515  405  675]
463.543	0.2	1002401	1002637	BlankScreen	VGS	65	3	False	lime	180	[405 885 405 675]	[1035 1515  405  675]
463.779	1.0	1002637	1003637	ELCue	VGS	65	3	False	lime	180	[405 885 405 675]	[1035 1515  405  675]
465.184	6.0	1004042	1010072	ShowFixation	VGS	66	3	False	lime	460	[1035 1515  405  675]	[405 885 405 675]
471.214	0.2	1010072	1010311	BlankScreen	VGS	66	3	False	lime	460	[1035 1515  405  675]	[405 885 405 675]
471.453	1.0	1010311	1011311	ELCue	VGS	66	3	False	lime	460	[1035 1515  405  675]	[405 885 405 675]
472.825	2.0	1011683	1013713	ShowFixation	VGS	67	3	False	lime	40	[ 90 570 405 675]	[1350 1830  405  675]
474.855	0.2	1013713	1013948	BlankScreen	VGS	67	3	False	lime	40	[ 90 570 405 675]	[1350 1830  405  675]
475.09	1.0	1013948	1014948	ELCue	VGS	67	3	False	lime	40	[ 90 570 405 675]	[1350 1830  405  675]
476.499	6.0	1015357	1021383	ShowFixation	ANTI	68	3	False	red	180	[1035 1515  405  675]	[405 885 405 675]
482.525	0.2	1021383	1021622	BlankScreen	ANTI	68	3	False	red	180	[1035 1515  405  675]	[405 885 405 675]
482.764	1.0	1021622	1022622	ELCue	ANTI	68	3	False	red	180	[1035 1515  405  675]	[405 885 405 675]
484.225	6.0	1023083	1029124	ShowFixation	VGS	69	3	False	lime	180	[405 885 405 675]	[1035 1515  405  675]
490.266	0.2	1029124	1029363	BlankScreen	VGS	69	3	False	lime	180	[405 885 405 675]	[1035 1515  405  675]
490.505	1.0	1029363	1030363	ELCue	VGS	69	3	False	lime	180	[405 885 405 675]	[1035 1515  405  675]
491.91	2.0	1030768	1032798	ShowFixation	ANTI	70	3	False	red	460	[405 885 405 675]	[1035 1515  405  675]
493.94	0.2	1032798	1033034	BlankScreen	ANTI	70	3	False	red	460	[405 885 405 675]	[1035 1515  405  675]
494.176	1.0	1033034	1034034	ELCue	ANTI	70	3	False	red	460	[405 885 405 675]	[1035 1515  405  675]
495.586	6.0	1034444	1040485	ShowFixation	VGS	71	3	False	lime	460	[1035 1515  405  675]	[405 885 405 675]
501.627	0.2	1040485	1040724	BlankScreen	VGS	71	3	False	lime	460	[1035 1515  405  675]	[405 885 405 675]
501.866	1.0	1040724	1041724	ELCue	VGS	71	3	False	lime	460	[1035 1515  405  675]	[405 885 405 675]
503.272	2.0	1042130	1044159	ShowFixation	ANTI	72	3	False	red	40	[1350 1830  405  675]	[ 90 570 405 675]
505.301	0.2	1044159	1044395	BlankScreen	ANTI	72	3	False	red	40	[1350 1830  405  675]	[ 90 570 405 675]
505.537	1.0	1044395	1045395	ELCue	ANTI	72	3	False	red	40	[1350 1830  405  675]	[ 90 570 405 675]
506.945	2.0	1045803	1047830	ShowFixation	ANTI	73	3	False	red	460	[405 885 405 675]	[1035 1515  405  675]
508.972	0.2	1047830	1048065	BlankScreen	ANTI	73	3	False	red	460	[405 885 405 675]	[1035 1515  405  675]
509.207	1.0	1048065	1049065	ELCue	ANTI	73	3	False	red	460	[405 885 405 675]	[1035 1515  405  675]
510.615	6.0	1049473	1055500	ShowFixation	ANTI	74	3	False	red	600	[ 90 570 405 675]	[1350 1830  405  675]
516.642	0.2	1055500	1055739	BlankScreen	ANTI	74	3	False	red	600	[ 90 570 405 675]	[1350 1830  405  675]
516.881	1.0	1055739	1056739	ELCue	ANTI	74	3	False	red	600	[ 90 570 405 675]	[1350 1830  405  675]
518.291	2.0	1057149	1059174	ShowFixation	VGS	75	3	False	lime	460	[1035 1515  405  675]	[405 885 405 675]
520.316	0.2	1059174	1059410	BlankScreen	VGS	75	3	False	lime	460	[1035 1515  405  675]	[405 885 405 675]
520.552	1.0	1059410	1060410	ELCue	VGS	75	3	False	lime	460	[1035 1515  405  675]	[405 885 405 675]
521.96	2.0	1060818	1062845	ShowFixation	VGS	76	3	False	lime	600	[1350 1830  405  675]	[ 90 570 405 675]
523.987	0.2	1062845	1063080	BlankScreen	VGS	76	3	False	lime	600	[1350 1830  405  675]	[ 90 570 405 675]
524.222	1.0	1063080	1064080	ELCue	VGS	76	3	False	lime	600	[1350 1830  405  675]	[ 90 570 405 675]
525.629	2.0	1064487	1066515	ShowFixation	ANTI	77	3	False	red	600	[ 90 570 405 675]	[1350 1830  405  675]
527.657	0.2	1066515	1066750	BlankScreen	ANTI	77	3	False	red	600	[ 90 570 405 675]	[1350 1830  405  675]
527.892	1.0	1066750	1067750	ELCue	ANTI	77	3	False	red	600	[ 90 570 405 675]	[1350 1830  405  675]
529.305	6.0	1068163	1074202	ShowFixation	VGS	78	3	False	lime	600	[1350 1830  405  675]	[ 90 570 405 675]
535.344	0.2	1074202	1074441	BlankScreen	VGS	78	3	False	lime	600	[1350 1830  405  675]	[ 90 570 405 675]
535.583	1.0	1074441	1075441	ELCue	VGS	78	3	False	lime	600	[1350 1830  405  675]	[ 90 570 405 675]
536.991	6.0	1075849	1081876	ShowFixation	ANTI	79	3	False	red	180	[1035 1515  405  675]	[405 885 405 675]
543.018	0.2	1081876	1082115	BlankScreen	ANTI	79	3	False	red	180	[1035 1515  405  675]	[405 885 405 675]
543.257	1.0	1082115	1083115	ELCue	ANTI	79	3	False	red	180	[1035 1515  405  675]	[405 885 405 675]
544.745	6.0	1083603	1089634	ShowFixation	ANTI	80	3	False	red	40	[1350 1830  405  675]	[ 90 570 405 675]
550.776	0.2	1089634	1089873	BlankScreen	ANTI	80	3	False	red	40	[1350 1830  405  675]	[ 90 570 405 675]
551.015	1.0	1089873	1090873	ELCue	ANTI	80	3	False	red	40	[1350 1830  405  675]	[ 90 570 405 675]
615.474	6.0	1154332	1160371	ShowFixation	VGS	81	4	False	lime	600	[1350 1830  405  675]	[ 90 570 405 675]
621.513	0.2	1160371	1160611	BlankScreen	VGS	81	4	False	lime	600	[1350 1830  405  675]	[ 90 570 405 675]
621.753	1.0	1160611	1161611	ELCue	VGS	81	4	False	lime	600	[1350 1830  405  675]	[ 90 570 405 675]
623.16	6.0	1162018	1168045	ShowFixation	ANTI	82	4	False	red	180	[1035 1515  405  675]	[405 885 405 675]
629.187	0.2	1168045	1168285	BlankScreen	ANTI	82	4	False	red	180	[1035 1515  405  675]	[405 885 405 675]
629.427	1.0	1168285	1169285	ELCue	ANTI	82	4	False	red	180	[1035 1515  405  675]	[405 885 405 675]
630.838	2.0	1169696	1171736	ShowFixation	ANTI	83	4	False	red	180	[1035 1515  405  675]	[405 885 405 675]
632.878	0.2	1171736	1171972	BlankScreen	ANTI	83	4	False	red	180	[1035 1515  405  675]	[405 885 405 675]
633.114	1.0	1171972	1172972	ELCue	ANTI	83	4	False	red	180	[1035 1515  405  675]	[405 885 405 675]
634.516	6.0	1173374	1179407	ShowFixation	VGS	84	4	False	lime	600	[1350 1830  405  675]	[ 90 570 405 675]
640.549	0.2	1179407	1179646	BlankScreen	VGS	84	4	False	lime	600	[1350 1830  405  675]	[ 90 570 405 675]
640.788	1.0	1179646	1180646	ELCue	VGS	84	4	False	lime	600	[1350 1830  405  675]	[ 90 570 405 675]
642.197	2.0	1181055	1183081	ShowFixation	VGS	85	4	False	lime	600	[1350 1830  405  675]	[ 90 570 405 675]
644.223	0.2	1183081	1183316	BlankScreen	VGS	85	4	False	lime	600	[1350 1830  405  675]	[ 90 570 405 675]
644.458	1.0	1183316	1184316	ELCue	VGS	85	4	False	lime	600	[1350 1830  405  675]	[ 90 570 405 675]
645.868	6.0	1184726	1190751	ShowFixation	ANTI	86	4	False	red	600	[ 90 570 405 675]	[1350 1830  405  675]
651.893	0.2	1190751	1190991	BlankScreen	ANTI	86	4	False	red	600	[ 90 570 405 675]	[1350 1830  405  675]
652.133	1.0	1190991	1191991	ELCue	ANTI	86	4	False	red	600	[ 90 570 405 675]	[1350 1830  405  675]
653.536	2.0	1192394	1194426	ShowFixation	ANTI	87	4	False	red	600	[ 90 570 405 675]	[1350 1830  405  675]
655.568	0.2	1194426	1194661	BlankScreen	ANTI	87	4	False	red	600	[ 90 570 405 675]	[1350 1830  405  675]
655.803	1.0	1194661	1195661	ELCue	ANTI	87	4	False	red	600	[ 90 570 405 675]	[1350 1830  405  675]
657.214	2.0	1196072	1198112	ShowFixation	ANTI	88	4	False	red	600	[ 90 570 405 675]	[1350 1830  405  675]
659.254	0.2	1198112	1198348	BlankScreen	ANTI	88	4	False	red	600	[ 90 570 405 675]	[1350 1830  405  675]
659.49	1.0	1198348	1199348	ELCue	ANTI	88	4	False	red	600	[ 90 570 405 675]	[1350 1830  405  675]
660.899	2.0	1199757	1201783	ShowFixation	VGS	89	4	False	lime	40	[ 90 570 405 675]	[1350 1830  405  675]
662.925	0.2	1201783	1202018	BlankScreen	VGS	89	4	False	lime	40	[ 90 570 405 675]	[1350 1830  405  675]
663.16	1.0	1202018	1203018	ELCue	VGS	89	4	False	lime	40	[ 90 570 405 675]	[1350 1830  405  675]
664.568	2.0	1203426	1205453	ShowFixation	ANTI	90	4	False	red	40	[1350 1830  405  675]	[ 90 570 405 675]
666.595	0.2	1205453	1205688	BlankScreen	ANTI	90	4	False	red	40	[1350 1830  405  675]	[ 90 570 405 675]
666.83	1.0	1205688	1206688	ELCue	ANTI	90	4	False	red	40	[1350 1830  405  675]	[ 90 570 405 675]
668.238	2.0	1207096	1209123	ShowFixation	VGS	91	4	False	lime	600	[1350 1830  405  675]	[ 90 570 405 675]
670.265	0.2	1209123	1209359	BlankScreen	VGS	91	4	False	lime	600	[1350 1830  405  675]	[ 90 570 405 675]
670.501	1.0	1209359	1210359	ELCue	VGS	91	4	False	lime	600	[1350 1830  405  675]	[ 90 570 405 675]
671.891	6.0	1210749	1216777	ShowFixation	VGS	92	4	False	lime	460	[1035 1515  405  675]	[405 885 405 675]
677.919	0.2	1216777	1217016	BlankScreen	VGS	92	4	False	lime	460	[1035 1515  405  675]	[405 885 405 675]
678.158	1.0	1217016	1218016	ELCue	VGS	92	4	False	lime	460	[1035 1515  405  675]	[405 885 405 675]
679.567	6.0	1218425	1224451	ShowFixation	ANTI	93	4	False	red	460	[405 885 405 675]	[1035 1515  405  675]
685.593	0.2	1224451	1224691	BlankScreen	ANTI	93	4	False	red	460	[405 885 405 675]	[1035 1515  405  675]
685.833	1.0	1224691	1225691	ELCue	ANTI	93	4	False	red	460	[405 885 405 675]	[1035 1515  405  675]
687.245	2.0	1226103	1228143	ShowFixation	VGS	94	4	False	lime	180	[405 885 405 675]	[1035 1515  405  675]
689.285	0.2	1228143	1228377	BlankScreen	VGS	94	4	False	lime	180	[405 885 405 675]	[1035 1515  405  675]
689.52	1.0	1228378	1229378	ELCue	VGS	94	4	False	lime	180	[405 885 405 675]	[1035 1515  405  675]
690.931	6.0	1229789	1235830	ShowFixation	VGS	95	4	False	lime	180	[405 885 405 675]	[1035 1515  405  675]
696.972	0.2	1235830	1236069	BlankScreen	VGS	95	4	False	lime	180	[405 885 405 675]	[1035 1515  405  675]
697.211	1.0	1236069	1237069	ELCue	VGS	95	4	False	lime	180	[405 885 405 675]	[1035 1515  405  675]
698.62	6.0	1237478	1243503	ShowFixation	ANTI	96	4	False	red	460	[405 885 405 675]	[1035 1515  405  675]
704.646	0.2	1243504	1243744	BlankScreen	ANTI	96	4	False	red	460	[405 885 405 675]	[1035 1515  405  675]
704.886	1.0	1243744	1244744	ELCue	ANTI	96	4	False	red	460	[405 885 405 675]	[1035 1515  405  675]
706.295	6.0	1245153	1251179	ShowFixation	VGS	97	4	False	lime	40	[ 90 570 405 675]	[1350 1830  405  675]
712.321	0.2	1251179	1251418	BlankScreen	VGS	97	4	False	lime	40	[ 90 570 405 675]	[1350 1830  405  675]
712.56	1.0	1251418	1252418	ELCue	VGS	97	4	False	lime	40	[ 90 570 405 675]	[1350 1830  405  675]
713.97	6.0	1252828	1258853	ShowFixation	ANTI	98	4	False	red	180	[1035 1515  405  675]	[405 885 405 675]
719.995	0.2	1258853	1259092	BlankScreen	ANTI	98	4	False	red	180	[1035 1515  405  675]	[405 885 405 675]
720.234	1.0	1259092	1260092	ELCue	ANTI	98	4	False	red	180	[1035 1515  405  675]	[405 885 405 675]
721.646	2.0	1260504	1262544	ShowFixation	VGS	99	4	False	lime	40	[ 90 570 405 675]	[1350 1830  405  675]
723.686	0.2	1262544	1262779	BlankScreen	VGS	99	4	False	lime	40	[ 90 570 405 675]	[1350 1830  405  675]
723.921	1.0	1262779	1263779	ELCue	VGS	99	4	False	lime	40	[ 90 570 405 675]	[1350 1830  405  675]
725.333	2.0	1264191	1266231	ShowFixation	ANTI	100	4	False	red	460	[405 885 405 675]	[1035 1515  405  675]
727.373	0.2	1266231	1266466	BlankScreen	ANTI	100	4	False	red	460	[405 885 405 675]	[1035 1515  405  675]
727.608	1.0	1266466	1267466	ELCue	ANTI	100	4	False	red	460	[405 885 405 675]	[1035 1515  405  675]
729.019	6.0	1267877	1273918	ShowFixation	VGS	101	4	False	lime	180	[405 885 405 675]	[1035 1515  405  675]
735.06	0.2	1273918	1274157	BlankScreen	VGS	101	4	False	lime	180	[405 885 405 675]	[1035 1515  405  675]
735.299	1.0	1274157	1275157	ELCue	VGS	101	4	False	lime	180	[405 885 405 675]	[1035 1515  405  675]
736.708	6.0	1275566	1281592	ShowFixation	ANTI	102	4	False	red	600	[ 90 570 405 675]	[1350 1830  405  675]
742.734	0.2	1281592	1281831	BlankScreen	ANTI	102	4	False	red	600	[ 90 570 405 675]	[1350 1830  405  675]
742.973	1.0	1281831	1282831	ELCue	ANTI	102	4	False	red	600	[ 90 570 405 675]	[1350 1830  405  675]
744.368	2.0	1283226	1285266	ShowFixation	ANTI	103	4	False	red	40	[1350 1830  405  675]	[ 90 570 405 675]
746.408	0.2	1285266	1285502	BlankScreen	ANTI	103	4	False	red	40	[1350 1830  405  675]	[ 90 570 405 675]
746.644	1.0	1285502	1286502	ELCue	ANTI	103	4	False	red	40	[1350 1830  405  675]	[ 90 570 405 675]
748.053	6.0	1286911	1292937	ShowFixation	VGS	104	4	False	lime	40	[ 90 570 405 675]	[1350 1830  405  675]
754.079	0.2	1292937	1293176	BlankScreen	VGS	104	4	False	lime	40	[ 90 570 405 675]	[1350 1830  405  675]
754.318	1.0	1293176	1294176	ELCue	VGS	104	4	False	lime	40	[ 90 570 405 675]	[1350 1830  405  675]
755.732	6.0	1294590	1300627	ShowFixation	VGS	105	4	False	lime	460	[1035 1515  405  675]	[405 885 405 675]
761.769	0.2	1300627	1300867	BlankScreen	VGS	105	4	False	lime	460	[1035 1515  405  675]	[405 885 405 675]
762.009	1.0	1300867	1301867	ELCue	VGS	105	4	False	lime	460	[1035 1515  405  675]	[405 885 405 675]
763.398	2.0	1302256	1304285	ShowFixation	VGS	106	4	False	lime	460	[1035 1515  405  675]	[405 885 405 675]
765.427	0.2	1304285	1304520	BlankScreen	VGS	106	4	False	lime	460	[1035 1515  405  675]	[405 885 405 675]
765.662	1.0	1304520	1305520	ELCue	VGS	106	4	False	lime	460	[1035 1515  405  675]	[405 885 405 675]
767.068	6.0	1305926	1311955	ShowFixation	ANTI	107	4	False	red	40	[1350 1830  405  675]	[ 90 570 405 675]
773.097	0.2	1311955	1312195	BlankScreen	ANTI	107	4	False	red	40	[1350 1830  405  675]	[ 90 570 405 675]
773.337	1.0	1312195	1313195	ELCue	ANTI	107	4	False	red	40	[1350 1830  405  675]	[ 90 570 405 675]
774.742	2.0	1313600	1315630	ShowFixation	VGS	108	4	False	lime	180	[405 885 405 675]	[1035 1515  405  675]
776.772	0.2	1315630	1315865	BlankScreen	VGS	108	4	False	lime	180	[405 885 405 675]	[1035 1515  405  675]
777.007	1.0	1315865	1316865	ELCue	VGS	108	4	False	lime	180	[405 885 405 675]	[1035 1515  405  675]
778.416	2.0	1317274	1319300	ShowFixation	VGS	109	4	False	lime	460	[1035 1515  405  675]	[405 885 405 675]
780.442	0.2	1319300	1319535	BlankScreen	VGS	109	4	False	lime	460	[1035 1515  405  675]	[405 885 405 675]
780.677	1.0	1319535	1320535	ELCue	VGS	109	4	False	lime	460	[1035 1515  405  675]	[405 885 405 675]
782.069	6.0	1320927	1326953	ShowFixation	ANTI	110	4	False	red	40	[1350 1830  405  675]	[ 90 570 405 675]
788.095	0.2	1326953	1327193	BlankScreen	ANTI	110	4	False	red	40	[1350 1830  405  675]	[ 90 570 405 675]
788.335	1.0	1327193	1328193	ELCue	ANTI	110	4	False	red	40	[1350 1830  405  675]	[ 90 570 405 675]
789.741	2.0	1328599	1330628	ShowFixation	ANTI	111	4	False	red	180	[1035 1515  405  675]	[405 885 405 675]
791.77	0.2	1330628	1330863	BlankScreen	ANTI	111	4	False	red	180	[1035 1515  405  675]	[405 885 405 675]
792.005	1.0	1330863	1331863	ELCue	ANTI	111	4	False	red	180	[1035 1515  405  675]	[405 885 405 675]
793.412	2.0	1332270	1334298	ShowFixation	ANTI	112	4	False	red	460	[405 885 405 675]	[1035 1515  405  675]
795.44	0.2	1334298	1334533	BlankScreen	ANTI	112	4	False	red	460	[405 885 405 675]	[1035 1515  405  675]
795.675	1.0	1334533	1335533	ELCue	ANTI	112	4	False	red	460	[405 885 405 675]	[1035 1515  405  675]
