onset	duration	startTime	stopTime	eventIdentifier	trial_type	trial_number	block_number	is_practice	fixation_color	cue_side	aoi_correct	aoi_incorrect
0.146	2.0	397198	399223	ShowFixation	VGS	1	1	True	lime	180	[405 885 405 675]	[1035 1515  405  675]
2.171	0.2	399223	399459	BlankScreen	VGS	1	1	True	lime	180	[405 885 405 675]	[1035 1515  405  675]
2.407	1.0	399459	400498	ELCue	VGS	1	1	True	lime	180	[405 885 405 675]	[1035 1515  405  675]
3.899	2.0	400951	403527	ShowFixation	VGS	2	1	True	lime	40	[ 90 570 405 675]	[1350 1830  405  675]
6.475	0.2	403527	403746	BlankScreen	VGS	2	1	True	lime	40	[ 90 570 405 675]	[1350 1830  405  675]
6.694	1.0	403746	404769	ELCue	VGS	2	1	True	lime	40	[ 90 570 405 675]	[1350 1830  405  675]
8.125	6.0	405177	411815	ShowFixation	ANTI	3	1	True	red	180	[1035 1515  405  675]	[405 885 405 675]
14.763	0.2	411815	412054	BlankScreen	ANTI	3	1	True	red	180	[1035 1515  405  675]	[405 885 405 675]
15.002	1.0	412054	413095	ELCue	ANTI	3	1	True	red	180	[1035 1515  405  675]	[405 885 405 675]
16.444	6.0	413496	420140	ShowFixation	ANTI	4	1	True	red	40	[1350 1830  405  675]	[ 90 570 405 675]
23.088	0.2	420140	420379	BlankScreen	ANTI	4	1	True	red	40	[1350 1830  405  675]	[ 90 570 405 675]
23.327	1.0	420379	421420	ELCue	ANTI	4	1	True	red	40	[1350 1830  405  675]	[ 90 570 405 675]
24.773	2.0	421825	424465	ShowFixation	VGS	5	1	True	lime	460	[1035 1515  405  675]	[405 885 405 675]
27.413	0.2	424465	424700	BlankScreen	VGS	5	1	True	lime	460	[1035 1515  405  675]	[405 885 405 675]
27.648	1.0	424700	425741	ELCue	VGS	5	1	True	lime	460	[1035 1515  405  675]	[405 885 405 675]
29.077	6.0	426129	432786	ShowFixation	VGS	6	1	True	lime	600	[1350 1830  405  675]	[ 90 570 405 675]
35.734	0.2	432786	433025	BlankScreen	VGS	6	1	True	lime	600	[1350 1830  405  675]	[ 90 570 405 675]
35.973	1.0	433025	434066	ELCue	VGS	6	1	True	lime	600	[1350 1830  405  675]	[ 90 570 405 675]
37.42	6.0	434472	441111	ShowFixation	VGS	7	1	True	lime	460	[1035 1515  405  675]	[405 885 405 675]
44.059	0.2	441111	441350	BlankScreen	VGS	7	1	True	lime	460	[1035 1515  405  675]	[405 885 405 675]
44.298	1.0	441350	442390	ELCue	VGS	7	1	True	lime	460	[1035 1515  405  675]	[405 885 405 675]
45.741	6.0	442793	449419	ShowFixation	ANTI	8	1	True	red	460	[405 885 405 675]	[1035 1515  405  675]
52.367	0.2	449419	449658	BlankScreen	ANTI	8	1	True	red	460	[405 885 405 675]	[1035 1515  405  675]
52.606	1.0	449658	450695	ELCue	ANTI	8	1	True	red	460	[405 885 405 675]	[1035 1515  405  675]
54.048	2.0	451100	453744	ShowFixation	ANTI	9	1	True	red	460	[405 885 405 675]	[1035 1515  405  675]
56.692	0.2	453744	453979	BlankScreen	ANTI	9	1	True	red	460	[405 885 405 675]	[1035 1515  405  675]
56.927	1.0	453979	455020	ELCue	ANTI	9	1	True	red	460	[405 885 405 675]	[1035 1515  405  675]
58.373	2.0	455425	458065	ShowFixation	ANTI	10	1	True	red	600	[ 90 570 405 675]	[1350 1830  405  675]
61.013	0.2	458065	458300	BlankScreen	ANTI	10	1	True	red	600	[ 90 570 405 675]	[1350 1830  405  675]
61.248	1.0	458300	459341	ELCue	ANTI	10	1	True	red	600	[ 90 570 405 675]	[1350 1830  405  675]
62.67	2.0	459722	462386	ShowFixation	ANTI	11	1	True	red	40	[1350 1830  405  675]	[ 90 570 405 675]
65.334	0.2	462386	462621	BlankScreen	ANTI	11	1	True	red	40	[1350 1830  405  675]	[ 90 570 405 675]
65.569	1.0	462621	463659	ELCue	ANTI	11	1	True	red	40	[1350 1830  405  675]	[ 90 570 405 675]
66.998	6.0	464050	470673	ShowFixation	VGS	12	1	True	lime	40	[ 90 570 405 675]	[1350 1830  405  675]
73.621	0.2	470673	470912	BlankScreen	VGS	12	1	True	lime	40	[ 90 570 405 675]	[1350 1830  405  675]
73.86	1.0	470912	471953	ELCue	VGS	12	1	True	lime	40	[ 90 570 405 675]	[1350 1830  405  675]
75.304	2.0	472356	474981	ShowFixation	VGS	13	1	True	lime	600	[1350 1830  405  675]	[ 90 570 405 675]
77.929	0.2	474981	475200	BlankScreen	VGS	13	1	True	lime	600	[1350 1830  405  675]	[ 90 570 405 675]
78.148	1.0	475200	476224	ELCue	VGS	13	1	True	lime	600	[1350 1830  405  675]	[ 90 570 405 675]
79.574	2.0	476626	479269	ShowFixation	ANTI	14	1	True	red	180	[1035 1515  405  675]	[405 885 405 675]
82.217	0.2	479269	479504	BlankScreen	ANTI	14	1	True	red	180	[1035 1515  405  675]	[405 885 405 675]
82.453	1.0	479505	480545	ELCue	ANTI	14	1	True	red	180	[1035 1515  405  675]	[405 885 405 675]
83.896	6.0	480948	487590	ShowFixation	ANTI	15	1	True	red	600	[ 90 570 405 675]	[1350 1830  405  675]
90.539	0.2	487591	487830	BlankScreen	ANTI	15	1	True	red	600	[ 90 570 405 675]	[1350 1830  405  675]
90.778	1.0	487830	488870	ELCue	ANTI	15	1	True	red	600	[ 90 570 405 675]	[1350 1830  405  675]
92.223	6.0	489275	495916	ShowFixation	VGS	16	1	True	lime	180	[405 885 405 675]	[1035 1515  405  675]
98.864	0.2	495916	496155	BlankScreen	VGS	16	1	True	lime	180	[405 885 405 675]	[1035 1515  405  675]
99.103	1.0	496155	497195	ELCue	VGS	16	1	True	lime	180	[405 885 405 675]	[1035 1515  405  675]
147.168	2.0	544220	546253	ShowFixation	VGS	17	2	False	lime	460	[1035 1515  405  675]	[405 885 405 675]
149.201	0.2	546253	546488	BlankScreen	VGS	17	2	False	lime	460	[1035 1515  405  675]	[405 885 405 675]
149.436	1.0	546488	547488	ELCue	VGS	17	2	False	lime	460	[1035 1515  405  675]	[405 885 405 675]
150.822	6.0	547874	553906	ShowFixation	VGS	18	2	False	lime	600	[1350 1830  405  675]	[ 90 570 405 675]
156.854	0.2	553906	554146	BlankScreen	VGS	18	2	False	lime	600	[1350 1830  405  675]	[ 90 570 405 675]
157.094	1.0	554146	555146	ELCue	VGS	18	2	False	lime	600	[1350 1830  405  675]	[ 90 570 405 675]
158.499	6.0	555551	561581	ShowFixation	ANTI	19	2	False	red	180	[1035 1515  405  675]	[405 885 405 675]
164.529	0.2	561581	561820	BlankScreen	ANTI	19	2	False	red	180	[1035 1515  405  675]	[405 885 405 675]
164.768	1.0	561820	562820	ELCue	ANTI	19	2	False	red	180	[1035 1515  405  675]	[405 885 405 675]
166.178	6.0	563230	569255	ShowFixation	ANTI	20	2	False	red	40	[1350 1830  405  675]	[ 90 570 405 675]
172.203	0.2	569255	569494	BlankScreen	ANTI	20	2	False	red	40	[1350 1830  405  675]	[ 90 570 405 675]
172.442	1.0	569494	570494	ELCue	ANTI	20	2	False	red	40	[1350 1830  405  675]	[ 90 570 405 675]
173.851	2.0	570903	572929	ShowFixation	VGS	21	2	False	lime	40	[ 90 570 405 675]	[1350 1830  405  675]
175.877	0.2	572929	573164	BlankScreen	VGS	21	2	False	lime	40	[ 90 570 405 675]	[1350 1830  405  675]
176.112	1.0	573164	574164	ELCue	VGS	21	2	False	lime	40	[ 90 570 405 675]	[1350 1830  405  675]
177.522	6.0	574574	580599	ShowFixation	VGS	22	2	False	lime	460	[1035 1515  405  675]	[405 885 405 675]
183.547	0.2	580599	580839	BlankScreen	VGS	22	2	False	lime	460	[1035 1515  405  675]	[405 885 405 675]
183.787	1.0	580839	581839	ELCue	VGS	22	2	False	lime	460	[1035 1515  405  675]	[405 885 405 675]
185.191	2.0	582243	584274	ShowFixation	VGS	23	2	False	lime	180	[405 885 405 675]	[1035 1515  405  675]
187.222	0.2	584274	584509	BlankScreen	VGS	23	2	False	lime	180	[405 885 405 675]	[1035 1515  405  675]
187.457	1.0	584509	585509	ELCue	VGS	23	2	False	lime	180	[405 885 405 675]	[1035 1515  405  675]
188.935	6.0	585987	592027	ShowFixation	VGS	24	2	False	lime	180	[405 885 405 675]	[1035 1515  405  675]
194.975	0.2	592027	592267	BlankScreen	VGS	24	2	False	lime	180	[405 885 405 675]	[1035 1515  405  675]
195.215	1.0	592267	593267	ELCue	VGS	24	2	False	lime	180	[405 885 405 675]	[1035 1515  405  675]
196.604	2.0	593656	595685	ShowFixation	VGS	25	2	False	lime	460	[1035 1515  405  675]	[405 885 405 675]
198.633	0.2	595685	595920	BlankScreen	VGS	25	2	False	lime	460	[1035 1515  405  675]	[405 885 405 675]
198.868	1.0	595920	596920	ELCue	VGS	25	2	False	lime	460	[1035 1515  405  675]	[405 885 405 675]
200.271	2.0	597323	599355	ShowFixation	ANTI	26	2	False	red	600	[ 90 570 405 675]	[1350 1830  405  675]
202.303	0.2	599355	599591	BlankScreen	ANTI	26	2	False	red	600	[ 90 570 405 675]	[1350 1830  405  675]
202.539	1.0	599591	600591	ELCue	ANTI	26	2	False	red	600	[ 90 570 405 675]	[1350 1830  405  675]
203.928	2.0	600980	603009	ShowFixation	ANTI	27	2	False	red	600	[ 90 570 405 675]	[1350 1830  405  675]
205.957	0.2	603009	603244	BlankScreen	ANTI	27	2	False	red	600	[ 90 570 405 675]	[1350 1830  405  675]
206.192	1.0	603244	604244	ELCue	ANTI	27	2	False	red	600	[ 90 570 405 675]	[1350 1830  405  675]
207.596	2.0	604648	606679	ShowFixation	ANTI	28	2	False	red	460	[405 885 405 675]	[1035 1515  405  675]
209.627	0.2	606679	606914	BlankScreen	ANTI	28	2	False	red	460	[405 885 405 675]	[1035 1515  405  675]
209.862	1.0	606914	607914	ELCue	ANTI	28	2	False	red	460	[405 885 405 675]	[1035 1515  405  675]
211.267	6.0	608319	614349	ShowFixation	ANTI	29	2	False	red	180	[1035 1515  405  675]	[405 885 405 675]
217.297	0.2	614349	614589	BlankScreen	ANTI	29	2	False	red	180	[1035 1515  405  675]	[405 885 405 675]
217.537	1.0	614589	615589	ELCue	ANTI	29	2	False	red	180	[1035 1515  405  675]	[405 885 405 675]
218.938	2.0	615990	618024	ShowFixation	VGS	30	2	False	lime	40	[ 90 570 405 675]	[1350 1830  405  675]
220.972	0.2	618024	618259	BlankScreen	VGS	30	2	False	lime	40	[ 90 570 405 675]	[1350 1830  405  675]
221.208	1.0	618260	619260	ELCue	VGS	30	2	False	lime	40	[ 90 570 405 675]	[1350 1830  405  675]
222.616	2.0	619668	621694	ShowFixation	ANTI	31	2	False	red	40	[1350 1830  405  675]	[ 90 570 405 675]
224.643	0.2	621695	621929	BlankScreen	ANTI	31	2	False	red	40	[1350 1830  405  675]	[ 90 570 405 675]
224.878	1.0	621930	622930	ELCue	ANTI	31	2	False	red	40	[1350 1830  405  675]	[ 90 570 405 675]
226.288	2.0	623340	625382	ShowFixation	ANTI	32	2	False	red	180	[1035 1515  405  675]	[405 885 405 675]
228.33	0.2	625382	625617	BlankScreen	ANTI	32	2	False	red	180	[1035 1515  405  675]	[405 885 405 675]
228.565	1.0	625617	626617	ELCue	ANTI	32	2	False	red	180	[1035 1515  405  675]	[405 885 405 675]
229.977	6.0	627029	633069	ShowFixation	VGS	33	2	False	lime	600	[1350 1830  405  675]	[ 90 570 405 675]
236.017	0.2	633069	633308	BlankScreen	VGS	33	2	False	lime	600	[1350 1830  405  675]	[ 90 570 405 675]
236.256	1.0	633308	634308	ELCue	VGS	33	2	False	lime	600	[1350 1830  405  675]	[ 90 570 405 675]
237.664	6.0	634716	640743	ShowFixation	VGS	34	2	False	lime	180	[405 885 405 675]	[1035 1515  405  675]
243.691	0.2	640743	640982	BlankScreen	VGS	34	2	False	lime	180	[405 885 405 675]	[1035 1515  405  675]
243.93	1.0	640982	641982	ELCue	VGS	34	2	False	lime	180	[405 885 405 675]	[1035 1515  405  675]
245.304	6.0	642356	648384	ShowFixation	VGS	35	2	False	lime	40	[ 90 570 405 675]	[1350 1830  405  675]
251.332	0.2	648384	648623	BlankScreen	VGS	35	2	False	lime	40	[ 90 570 405 675]	[1350 1830  405  675]
251.571	1.0	648623	649623	ELCue	VGS	35	2	False	lime	40	[ 90 570 405 675]	[1350 1830  405  675]
252.983	6.0	650035	656075	ShowFixation	VGS	36	2	False	lime	40	[ 90 570 405 675]	[1350 1830  405  675]
259.023	0.2	656075	656314	BlankScreen	VGS	36	2	False	lime	40	[ 90 570 405 675]	[1350 1830  405  675]
259.262	1.0	656314	657314	ELCue	VGS	36	2	False	lime	40	[ 90 570 405 675]	[1350 1830  405  675]
260.673	6.0	657725	663766	ShowFixation	ANTI	37	2	False	red	600	[ 90 570 405 675]	[1350 1830  405  675]
266.714	0.2	663766	664005	BlankScreen	ANTI	37	2	False	red	600	[ 90 570 405 675]	[1350 1830  405  675]
266.953	1.0	664005	665005	ELCue	ANTI	37	2	False	red	600	[ 90 570 405 675]	[1350 1830  405  675]
268.364	2.0	665416	667457	ShowFixation	ANTI	38	2	False	red	40	[1350 1830  405  675]	[ 90 570 405 675]
270.405	0.2	667457	667692	BlankScreen	ANTI	38	2	False	red	40	[1350 1830  405  675]	[ 90 570 405 675]
270.64	1.0	667692	668692	ELCue	ANTI	38	2	False	red	40	[1350 1830  405  675]	[ 90 570 405 675]
272.045	2.0	669097	671127	ShowFixation	ANTI	39	2	False	red	180	[1035 1515  405  675]	[405 885 405 675]
274.075	0.2	671127	671362	BlankScreen	ANTI	39	2	False	red	180	[1035 1515  405  675]	[405 885 405 675]
274.31	1.0	671362	672362	ELCue	ANTI	39	2	False	red	180	[1035 1515  405  675]	[405 885 405 675]
275.703	2.0	672755	674781	ShowFixation	VGS	40	2	False	lime	180	[405 885 405 675]	[1035 1515  405  675]
277.729	0.2	674781	675016	BlankScreen	VGS	40	2	False	lime	180	[405 885 405 675]	[1035 1515  405  675]
277.964	1.0	675016	676016	ELCue	VGS	40	2	False	lime	180	[405 885 405 675]	[1035 1515  405  675]
279.377	2.0	676429	678468	ShowFixation	VGS	41	2	False	lime	600	[1350 1830  405  675]	[ 90 570 405 675]
281.416	0.2	678468	678703	BlankScreen	VGS	41	2	False	lime	600	[1350 1830  405  675]	[ 90 570 405 675]
281.651	1.0	678703	679703	ELCue	VGS	41	2	False	lime	600	[1350 1830  405  675]	[ 90 570 405 675]
283.059	2.0	680111	682138	ShowFixation	ANTI	42	2	False	red	460	[405 885 405 675]	[1035 1515  405  675]
285.086	0.2	682138	682373	BlankScreen	ANTI	42	2	False	red	460	[405 885 405 675]	[1035 1515  405  675]
285.321	1.0	682373	683373	ELCue	ANTI	42	2	False	red	460	[405 885 405 675]	[1035 1515  405  675]
286.731	2.0	683783	685808	ShowFixation	VGS	43	2	False	lime	600	[1350 1830  405  675]	[ 90 570 405 675]
288.756	0.2	685808	686044	BlankScreen	VGS	43	2	False	lime	600	[1350 1830  405  675]	[ 90 570 405 675]
288.992	1.0	686044	687044	ELCue	VGS	43	2	False	lime	600	[1350 1830  405  675]	[ 90 570 405 675]
290.4	6.0	687452	693479	ShowFixation	ANTI	44	2	False	red	460	[405 885 405 675]	[1035 1515  405  675]
296.427	0.2	693479	693718	BlankScreen	ANTI	44	2	False	red	460	[405 885 405 675]	[1035 1515  405  675]
296.666	1.0	693718	694718	ELCue	ANTI	44	2	False	red	460	[405 885 405 675]	[1035 1515  405  675]
298.057	6.0	695109	701136	ShowFixation	ANTI	45	2	False	red	600	[ 90 570 405 675]	[1350 1830  405  675]
304.084	0.2	701136	701375	BlankScreen	ANTI	45	2	False	red	600	[ 90 570 405 675]	[1350 1830  405  675]
304.323	1.0	701375	702375	ELCue	ANTI	45	2	False	red	600	[ 90 570 405 675]	[1350 1830  405  675]
305.728	6.0	702780	708810	ShowFixation	ANTI	46	2	False	red	460	[405 885 405 675]	[1035 1515  405  675]
311.758	0.2	708810	709050	BlankScreen	ANTI	46	2	False	red	460	[405 885 405 675]	[1035 1515  405  675]
311.998	1.0	709050	710050	ELCue	ANTI	46	2	False	red	460	[405 885 405 675]	[1035 1515  405  675]
313.406	6.0	710458	716485	ShowFixation	ANTI	47	2	False	red	40	[1350 1830  405  675]	[ 90 570 405 675]
319.433	0.2	716485	716724	BlankScreen	ANTI	47	2	False	red	40	[1350 1830  405  675]	[ 90 570 405 675]
319.672	1.0	716724	717724	ELCue	ANTI	47	2	False	red	40	[1350 1830  405  675]	[ 90 570 405 675]
321.057	6.0	718109	724142	ShowFixation	VGS	48	2	False	lime	460	[1035 1515  405  675]	[405 885 405 675]
327.09	0.2	724142	724381	BlankScreen	VGS	48	2	False	lime	460	[1035 1515  405  675]	[405 885 405 675]
327.329	1.0	724381	725381	ELCue	VGS	48	2	False	lime	460	[1035 1515  405  675]	[405 885 405 675]
398.577	2.0	795629	797670	ShowFixation	VGS	49	3	False	lime	40	[ 90 570 405 675]	[1350 1830  405  675]
400.618	0.2	797670	797905	BlankScreen	VGS	49	3	False	lime	40	[ 90 570 405 675]	[1350 1830  405  675]
400.853	1.0	797905	798905	ELCue	VGS	49	3	False	lime	40	[ 90 570 405 675]	[1350 1830  405  675]
402.261	2.0	799313	801340	ShowFixation	VGS	50	3	False	lime	600	[1350 1830  405  675]	[ 90 570 405 675]
404.288	0.2	801340	801575	BlankScreen	VGS	50	3	False	lime	600	[1350 1830  405  675]	[ 90 570 405 675]
404.523	1.0	801575	802575	ELCue	VGS	50	3	False	lime	600	[1350 1830  405  675]	[ 90 570 405 675]
405.93	2.0	802982	805010	ShowFixation	VGS	51	3	False	lime	180	[405 885 405 675]	[1035 1515  405  675]
407.958	0.2	805010	805246	BlankScreen	VGS	51	3	False	lime	180	[405 885 405 675]	[1035 1515  405  675]
408.194	1.0	805246	806246	ELCue	VGS	51	3	False	lime	180	[405 885 405 675]	[1035 1515  405  675]
409.602	6.0	806654	812681	ShowFixation	VGS	52	3	False	lime	180	[405 885 405 675]	[1035 1515  405  675]
415.629	0.2	812681	812920	BlankScreen	VGS	52	3	False	lime	180	[405 885 405 675]	[1035 1515  405  675]
415.868	1.0	812920	813920	ELCue	VGS	52	3	False	lime	180	[405 885 405 675]	[1035 1515  405  675]
417.273	2.0	814325	816355	ShowFixation	ANTI	53	3	False	red	460	[405 885 405 675]	[1035 1515  405  675]
419.303	0.2	816355	816590	BlankScreen	ANTI	53	3	False	red	460	[405 885 405 675]	[1035 1515  405  675]
419.538	1.0	816590	817590	ELCue	ANTI	53	3	False	red	460	[405 885 405 675]	[1035 1515  405  675]
420.949	6.0	818001	824042	ShowFixation	VGS	54	3	False	lime	600	[1350 1830  405  675]	[ 90 570 405 675]
426.99	0.2	824042	824281	BlankScreen	VGS	54	3	False	lime	600	[1350 1830  405  675]	[ 90 570 405 675]
427.229	1.0	824281	825281	ELCue	VGS	54	3	False	lime	600	[1350 1830  405  675]	[ 90 570 405 675]
428.622	2.0	825674	827699	ShowFixation	VGS	55	3	False	lime	180	[405 885 405 675]	[1035 1515  405  675]
430.647	0.2	827699	827935	BlankScreen	VGS	55	3	False	lime	180	[405 885 405 675]	[1035 1515  405  675]
430.883	1.0	827935	828935	ELCue	VGS	55	3	False	lime	180	[405 885 405 675]	[1035 1515  405  675]
432.289	6.0	829341	835370	ShowFixation	VGS	56	3	False	lime	460	[1035 1515  405  675]	[405 885 405 675]
438.318	0.2	835370	835609	BlankScreen	VGS	56	3	False	lime	460	[1035 1515  405  675]	[405 885 405 675]
438.557	1.0	835609	836609	ELCue	VGS	56	3	False	lime	460	[1035 1515  405  675]	[405 885 405 675]
439.966	2.0	837018	839044	ShowFixation	ANTI	57	3	False	red	460	[405 885 405 675]	[1035 1515  405  675]
441.992	0.2	839044	839279	BlankScreen	ANTI	57	3	False	red	460	[405 885 405 675]	[1035 1515  405  675]
442.227	1.0	839279	840279	ELCue	ANTI	57	3	False	red	460	[405 885 405 675]	[1035 1515  405  675]
443.638	6.0	840690	846731	ShowFixation	ANTI	58	3	False	red	40	[1350 1830  405  675]	[ 90 570 405 675]
449.679	0.2	846731	846970	BlankScreen	ANTI	58	3	False	red	40	[1350 1830  405  675]	[ 90 570 405 675]
449.918	1.0	846970	847970	ELCue	ANTI	58	3	False	red	40	[1350 1830  405  675]	[ 90 570 405 675]
451.309	6.0	848361	854388	ShowFixation	VGS	59	3	False	lime	40	[ 90 570 405 675]	[1350 1830  405  675]
457.336	0.2	854388	854628	BlankScreen	VGS	59	3	False	lime	40	[ 90 570 405 675]	[1350 1830  405  675]
457.576	1.0	854628	855628	ELCue	VGS	59	3	False	lime	40	[ 90 570 405 675]	[1350 1830  405  675]
458.978	2.0	856030	858063	ShowFixation	ANTI	60	3	False	red	40	[1350 1830  405  675]	[ 90 570 405 675]
461.011	0.2	858063	858298	BlankScreen	ANTI	60	3	False	red	40	[1350 1830  405  675]	[ 90 570 405 675]
461.246	1.0	858298	859298	ELCue	ANTI	60	3	False	red	40	[1350 1830  405  675]	[ 90 570 405 675]
462.623	6.0	859675	865700	ShowFixation	VGS	61	3	False	lime	40	[ 90 570 405 675]	[1350 1830  405  675]
468.648	0.2	865700	865939	BlankScreen	VGS	61	3	False	lime	40	[ 90 570 405 675]	[1350 1830  405  675]
468.887	1.0	865939	866939	ELCue	VGS	61	3	False	lime	40	[ 90 570 405 675]	[1350 1830  405  675]
470.297	6.0	867349	873374	ShowFixation	ANTI	62	3	False	red	180	[1035 1515  405  675]	[405 885 405 675]
476.322	0.2	873374	873613	BlankScreen	ANTI	62	3	False	red	180	[1035 1515  405  675]	[405 885 405 675]
476.561	1.0	873613	874613	ELCue	ANTI	62	3	False	red	180	[1035 1515  405  675]	[405 885 405 675]
477.967	2.0	875019	877048	ShowFixation	VGS	63	3	False	lime	460	[1035 1515  405  675]	[405 885 405 675]
479.996	0.2	877048	877284	BlankScreen	VGS	63	3	False	lime	460	[1035 1515  405  675]	[405 885 405 675]
480.232	1.0	877284	878284	ELCue	VGS	63	3	False	lime	460	[1035 1515  405  675]	[405 885 405 675]
481.641	2.0	878693	880718	ShowFixation	ANTI	64	3	False	red	600	[ 90 570 405 675]	[1350 1830  405  675]
483.666	0.2	880718	880954	BlankScreen	ANTI	64	3	False	red	600	[ 90 570 405 675]	[1350 1830  405  675]
483.902	1.0	880954	881954	ELCue	ANTI	64	3	False	red	600	[ 90 570 405 675]	[1350 1830  405  675]
485.293	6.0	882345	888372	ShowFixation	ANTI	65	3	False	red	40	[1350 1830  405  675]	[ 90 570 405 675]
491.321	0.2	888373	888612	BlankScreen	ANTI	65	3	False	red	40	[1350 1830  405  675]	[ 90 570 405 675]
491.56	1.0	888612	889612	ELCue	ANTI	65	3	False	red	40	[1350 1830  405  675]	[ 90 570 405 675]
492.965	6.0	890017	896047	ShowFixation	ANTI	66	3	False	red	180	[1035 1515  405  675]	[405 885 405 675]
498.995	0.2	896047	896287	BlankScreen	ANTI	66	3	False	red	180	[1035 1515  405  675]	[405 885 405 675]
499.235	1.0	896287	897287	ELCue	ANTI	66	3	False	red	180	[1035 1515  405  675]	[405 885 405 675]
500.645	6.0	897697	903738	ShowFixation	ANTI	67	3	False	red	460	[405 885 405 675]	[1035 1515  405  675]
506.686	0.2	903738	903978	BlankScreen	ANTI	67	3	False	red	460	[405 885 405 675]	[1035 1515  405  675]
506.926	1.0	903978	904978	ELCue	ANTI	67	3	False	red	460	[405 885 405 675]	[1035 1515  405  675]
508.339	2.0	905391	907429	ShowFixation	ANTI	68	3	False	red	600	[ 90 570 405 675]	[1350 1830  405  675]
510.377	0.2	907429	907665	BlankScreen	ANTI	68	3	False	red	600	[ 90 570 405 675]	[1350 1830  405  675]
510.613	1.0	907665	908665	ELCue	ANTI	68	3	False	red	600	[ 90 570 405 675]	[1350 1830  405  675]
512.024	6.0	909076	915116	ShowFixation	VGS	69	3	False	lime	180	[405 885 405 675]	[1035 1515  405  675]
518.064	0.2	915116	915355	BlankScreen	VGS	69	3	False	lime	180	[405 885 405 675]	[1035 1515  405  675]
518.303	1.0	915355	916355	ELCue	VGS	69	3	False	lime	180	[405 885 405 675]	[1035 1515  405  675]
519.695	6.0	916747	922774	ShowFixation	ANTI	70	3	False	red	600	[ 90 570 405 675]	[1350 1830  405  675]
525.722	0.2	922774	923013	BlankScreen	ANTI	70	3	False	red	600	[ 90 570 405 675]	[1350 1830  405  675]
525.961	1.0	923013	924013	ELCue	ANTI	70	3	False	red	600	[ 90 570 405 675]	[1350 1830  405  675]
527.369	2.0	924421	926448	ShowFixation	ANTI	71	3	False	red	180	[1035 1515  405  675]	[405 885 405 675]
529.396	0.2	926448	926683	BlankScreen	ANTI	71	3	False	red	180	[1035 1515  405  675]	[405 885 405 675]
529.631	1.0	926683	927683	ELCue	ANTI	71	3	False	red	180	[1035 1515  405  675]	[405 885 405 675]
531.045	2.0	928097	930135	ShowFixation	ANTI	72	3	False	red	180	[1035 1515  405  675]	[405 885 405 675]
533.083	0.2	930135	930370	BlankScreen	ANTI	72	3	False	red	180	[1035 1515  405  675]	[405 885 405 675]
533.318	1.0	930370	931370	ELCue	ANTI	72	3	False	red	180	[1035 1515  405  675]	[405 885 405 675]
534.733	2.0	931785	933822	ShowFixation	VGS	73	3	False	lime	40	[ 90 570 405 675]	[1350 1830  405  675]
536.77	0.2	933822	934057	BlankScreen	VGS	73	3	False	lime	40	[ 90 570 405 675]	[1350 1830  405  675]
537.005	1.0	934057	935057	ELCue	VGS	73	3	False	lime	40	[ 90 570 405 675]	[1350 1830  405  675]
538.415	6.0	935467	941492	ShowFixation	ANTI	74	3	False	red	600	[ 90 570 405 675]	[1350 1830  405  675]
544.44	0.2	941492	941731	BlankScreen	ANTI	74	3	False	red	600	[ 90 570 405 675]	[1350 1830  405  675]
544.679	1.0	941731	942731	ELCue	ANTI	74	3	False	red	600	[ 90 570 405 675]	[1350 1830  405  675]
546.067	6.0	943119	949150	ShowFixation	VGS	75	3	False	lime	460	[1035 1515  405  675]	[405 885 405 675]
552.098	0.2	949150	949389	BlankScreen	VGS	75	3	False	lime	460	[1035 1515  405  675]	[405 885 405 675]
552.337	1.0	949389	950389	ELCue	VGS	75	3	False	lime	460	[1035 1515  405  675]	[405 885 405 675]
553.752	6.0	950804	956841	ShowFixation	VGS	76	3	False	lime	600	[1350 1830  405  675]	[ 90 570 405 675]
559.789	0.2	956841	957080	BlankScreen	VGS	76	3	False	lime	600	[1350 1830  405  675]	[ 90 570 405 675]
560.028	1.0	957080	958080	ELCue	VGS	76	3	False	lime	600	[1350 1830  405  675]	[ 90 570 405 675]
561.433	6.0	958485	964515	ShowFixation	ANTI	77	3	False	red	460	[405 885 405 675]	[1035 1515  405  675]
567.463	0.2	964515	964754	BlankScreen	ANTI	77	3	False	red	460	[405 885 405 675]	[1035 1515  405  675]
567.702	1.0	964754	965754	ELCue	ANTI	77	3	False	red	460	[405 885 405 675]	[1035 1515  405  675]
569.106	2.0	966158	968189	ShowFixation	VGS	78	3	False	lime	600	[1350 1830  405  675]	[ 90 570 405 675]
571.137	0.2	968189	968425	BlankScreen	VGS	78	3	False	lime	600	[1350 1830  405  675]	[ 90 570 405 675]
571.373	1.0	968425	969425	ELCue	VGS	78	3	False	lime	600	[1350 1830  405  675]	[ 90 570 405 675]
572.775	2.0	969827	971859	ShowFixation	VGS	79	3	False	lime	460	[1035 1515  405  675]	[405 885 405 675]
574.807	0.2	971859	972095	BlankScreen	VGS	79	3	False	lime	460	[1035 1515  405  675]	[405 885 405 675]
575.043	1.0	972095	973095	ELCue	VGS	79	3	False	lime	460	[1035 1515  405  675]	[405 885 405 675]
576.451	2.0	973503	975530	ShowFixation	ANTI	80	3	False	red	40	[1350 1830  405  675]	[ 90 570 405 675]
578.478	0.2	975530	975765	BlankScreen	ANTI	80	3	False	red	40	[1350 1830  405  675]	[ 90 570 405 675]
578.713	1.0	975765	976765	ELCue	ANTI	80	3	False	red	40	[1350 1830  405  675]	[ 90 570 405 675]
638.076	2.0	1035128	1037158	ShowFixation	ANTI	81	4	False	red	600	[ 90 570 405 675]	[1350 1830  405  675]
640.106	0.2	1037158	1037394	BlankScreen	ANTI	81	4	False	red	600	[ 90 570 405 675]	[1350 1830  405  675]
640.342	1.0	1037394	1038394	ELCue	ANTI	81	4	False	red	600	[ 90 570 405 675]	[1350 1830  405  675]
641.751	2.0	1038803	1040829	ShowFixation	ANTI	82	4	False	red	460	[405 885 405 675]	[1035 1515  405  675]
643.777	0.2	1040829	1041064	BlankScreen	ANTI	82	4	False	red	460	[405 885 405 675]	[1035 1515  405  675]
644.012	1.0	1041064	1042064	ELCue	ANTI	82	4	False	red	460	[405 885 405 675]	[1035 1515  405  675]
645.418	6.0	1042470	1048499	ShowFixation	VGS	83	4	False	lime	180	[405 885 405 675]	[1035 1515  405  675]
651.447	0.2	1048499	1048738	BlankScreen	VGS	83	4	False	lime	180	[405 885 405 675]	[1035 1515  405  675]
651.686	1.0	1048738	1049738	ELCue	VGS	83	4	False	lime	180	[405 885 405 675]	[1035 1515  405  675]
653.09	2.0	1050142	1052173	ShowFixation	VGS	84	4	False	lime	180	[405 885 405 675]	[1035 1515  405  675]
655.121	0.2	1052173	1052409	BlankScreen	VGS	84	4	False	lime	180	[405 885 405 675]	[1035 1515  405  675]
655.357	1.0	1052409	1053409	ELCue	VGS	84	4	False	lime	180	[405 885 405 675]	[1035 1515  405  675]
656.765	2.0	1053817	1055843	ShowFixation	ANTI	85	4	False	red	40	[1350 1830  405  675]	[ 90 570 405 675]
658.791	0.2	1055843	1056079	BlankScreen	ANTI	85	4	False	red	40	[1350 1830  405  675]	[ 90 570 405 675]
659.027	1.0	1056079	1057079	ELCue	ANTI	85	4	False	red	40	[1350 1830  405  675]	[ 90 570 405 675]
660.435	6.0	1057487	1063514	ShowFixation	ANTI	86	4	False	red	180	[1035 1515  405  675]	[405 885 405 675]
666.462	0.2	1063514	1063753	BlankScreen	ANTI	86	4	False	red	180	[1035 1515  405  675]	[405 885 405 675]
666.701	1.0	1063753	1064753	ELCue	ANTI	86	4	False	red	180	[1035 1515  405  675]	[405 885 405 675]
668.109	6.0	1065161	1071188	ShowFixation	VGS	87	4	False	lime	460	[1035 1515  405  675]	[405 885 405 675]
674.136	0.2	1071188	1071427	BlankScreen	VGS	87	4	False	lime	460	[1035 1515  405  675]	[405 885 405 675]
674.375	1.0	1071427	1072427	ELCue	VGS	87	4	False	lime	460	[1035 1515  405  675]	[405 885 405 675]
675.784	6.0	1072836	1078862	ShowFixation	ANTI	88	4	False	red	600	[ 90 570 405 675]	[1350 1830  405  675]
681.81	0.2	1078862	1079102	BlankScreen	ANTI	88	4	False	red	600	[ 90 570 405 675]	[1350 1830  405  675]
682.05	1.0	1079102	1080102	ELCue	ANTI	88	4	False	red	600	[ 90 570 405 675]	[1350 1830  405  675]
683.456	6.0	1080508	1086536	ShowFixation	VGS	89	4	False	lime	40	[ 90 570 405 675]	[1350 1830  405  675]
689.484	0.2	1086536	1086776	BlankScreen	VGS	89	4	False	lime	40	[ 90 570 405 675]	[1350 1830  405  675]
689.724	1.0	1086776	1087776	ELCue	VGS	89	4	False	lime	40	[ 90 570 405 675]	[1350 1830  405  675]
691.132	6.0	1088184	1094211	ShowFixation	VGS	90	4	False	lime	600	[1350 1830  405  675]	[ 90 570 405 675]
697.159	0.2	1094211	1094450	BlankScreen	VGS	90	4	False	lime	600	[1350 1830  405  675]	[ 90 570 405 675]
697.398	1.0	1094450	1095450	ELCue	VGS	90	4	False	lime	600	[1350 1830  405  675]	[ 90 570 405 675]
698.792	2.0	1095844	1097885	ShowFixation	VGS	91	4	False	lime	40	[ 90 570 405 675]	[1350 1830  405  675]
700.833	0.2	1097885	1098120	BlankScreen	VGS	91	4	False	lime	40	[ 90 570 405 675]	[1350 1830  405  675]
701.068	1.0	1098120	1099120	ELCue	VGS	91	4	False	lime	40	[ 90 570 405 675]	[1350 1830  405  675]
702.476	2.0	1099528	1101555	ShowFixation	VGS	92	4	False	lime	600	[1350 1830  405  675]	[ 90 570 405 675]
704.503	0.2	1101555	1101791	BlankScreen	VGS	92	4	False	lime	600	[1350 1830  405  675]	[ 90 570 405 675]
704.739	1.0	1101791	1102791	ELCue	VGS	92	4	False	lime	600	[1350 1830  405  675]	[ 90 570 405 675]
706.105	2.0	1103157	1105192	ShowFixation	VGS	93	4	False	lime	460	[1035 1515  405  675]	[405 885 405 675]
708.14	0.2	1105192	1105428	BlankScreen	VGS	93	4	False	lime	460	[1035 1515  405  675]	[405 885 405 675]
708.376	1.0	1105428	1106428	ELCue	VGS	93	4	False	lime	460	[1035 1515  405  675]	[405 885 405 675]
709.788	6.0	1106840	1112879	ShowFixation	VGS	94	4	False	lime	180	[405 885 405 675]	[1035 1515  405  675]
715.827	0.2	1112879	1113118	BlankScreen	VGS	94	4	False	lime	180	[405 885 405 675]	[1035 1515  405  675]
716.066	1.0	1113118	1114118	ELCue	VGS	94	4	False	lime	180	[405 885 405 675]	[1035 1515  405  675]
717.434	2.0	1114486	1116520	ShowFixation	ANTI	95	4	False	red	180	[1035 1515  405  675]	[405 885 405 675]
719.468	0.2	1116520	1116755	BlankScreen	ANTI	95	4	False	red	180	[1035 1515  405  675]	[405 885 405 675]
719.703	1.0	1116755	1117755	ELCue	ANTI	95	4	False	red	180	[1035 1515  405  675]	[405 885 405 675]
721.114	6.0	1118166	1124207	ShowFixation	ANTI	96	4	False	red	40	[1350 1830  405  675]	[ 90 570 405 675]
727.155	0.2	1124207	1124446	BlankScreen	ANTI	96	4	False	red	40	[1350 1830  405  675]	[ 90 570 405 675]
727.394	1.0	1124446	1125446	ELCue	ANTI	96	4	False	red	40	[1350 1830  405  675]	[ 90 570 405 675]
728.804	6.0	1125856	1131881	ShowFixation	VGS	97	4	False	lime	460	[1035 1515  405  675]	[405 885 405 675]
734.829	0.2	1131881	1132121	BlankScreen	VGS	97	4	False	lime	460	[1035 1515  405  675]	[405 885 405 675]
735.069	1.0	1132121	1133121	ELCue	VGS	97	4	False	lime	460	[1035 1515  405  675]	[405 885 405 675]
736.478	6.0	1133530	1139556	ShowFixation	ANTI	98	4	False	red	180	[1035 1515  405  675]	[405 885 405 675]
742.504	0.2	1139556	1139795	BlankScreen	ANTI	98	4	False	red	180	[1035 1515  405  675]	[405 885 405 675]
742.743	1.0	1139795	1140795	ELCue	ANTI	98	4	False	red	180	[1035 1515  405  675]	[405 885 405 675]
744.217	2.0	1141269	1143297	ShowFixation	VGS	99	4	False	lime	180	[405 885 405 675]	[1035 1515  405  675]
746.246	0.2	1143298	1143532	BlankScreen	VGS	99	4	False	lime	180	[405 885 405 675]	[1035 1515  405  675]
746.481	1.0	1143533	1144533	ELCue	VGS	99	4	False	lime	180	[405 885 405 675]	[1035 1515  405  675]
747.854	2.0	1144906	1146933	ShowFixation	ANTI	100	4	False	red	600	[ 90 570 405 675]	[1350 1830  405  675]
749.882	0.2	1146934	1147169	BlankScreen	ANTI	100	4	False	red	600	[ 90 570 405 675]	[1350 1830  405  675]
750.118	1.0	1147170	1148170	ELCue	ANTI	100	4	False	red	600	[ 90 570 405 675]	[1350 1830  405  675]
751.528	6.0	1148580	1154605	ShowFixation	ANTI	101	4	False	red	600	[ 90 570 405 675]	[1350 1830  405  675]
757.553	0.2	1154605	1154844	BlankScreen	ANTI	101	4	False	red	600	[ 90 570 405 675]	[1350 1830  405  675]
757.792	1.0	1154844	1155844	ELCue	ANTI	101	4	False	red	600	[ 90 570 405 675]	[1350 1830  405  675]
759.196	2.0	1156248	1158279	ShowFixation	VGS	102	4	False	lime	40	[ 90 570 405 675]	[1350 1830  405  675]
761.227	0.2	1158279	1158514	BlankScreen	VGS	102	4	False	lime	40	[ 90 570 405 675]	[1350 1830  405  675]
761.462	1.0	1158514	1159514	ELCue	VGS	102	4	False	lime	40	[ 90 570 405 675]	[1350 1830  405  675]
762.867	2.0	1159919	1161949	ShowFixation	VGS	103	4	False	lime	600	[1350 1830  405  675]	[ 90 570 405 675]
764.897	0.2	1161949	1162185	BlankScreen	VGS	103	4	False	lime	600	[1350 1830  405  675]	[ 90 570 405 675]
765.133	1.0	1162185	1163185	ELCue	VGS	103	4	False	lime	600	[1350 1830  405  675]	[ 90 570 405 675]
766.542	6.0	1163594	1169620	ShowFixation	ANTI	104	4	False	red	460	[405 885 405 675]	[1035 1515  405  675]
772.568	0.2	1169620	1169859	BlankScreen	ANTI	104	4	False	red	460	[405 885 405 675]	[1035 1515  405  675]
772.807	1.0	1169859	1170859	ELCue	ANTI	104	4	False	red	460	[405 885 405 675]	[1035 1515  405  675]
774.212	6.0	1171264	1177294	ShowFixation	ANTI	105	4	False	red	460	[405 885 405 675]	[1035 1515  405  675]
780.242	0.2	1177294	1177533	BlankScreen	ANTI	105	4	False	red	460	[405 885 405 675]	[1035 1515  405  675]
780.481	1.0	1177533	1178533	ELCue	ANTI	105	4	False	red	460	[405 885 405 675]	[1035 1515  405  675]
781.89	2.0	1178942	1180968	ShowFixation	ANTI	106	4	False	red	180	[1035 1515  405  675]	[405 885 405 675]
783.916	0.2	1180968	1181203	BlankScreen	ANTI	106	4	False	red	180	[1035 1515  405  675]	[405 885 405 675]
784.151	1.0	1181203	1182203	ELCue	ANTI	106	4	False	red	180	[1035 1515  405  675]	[405 885 405 675]
785.557	6.0	1182609	1188638	ShowFixation	VGS	107	4	False	lime	600	[1350 1830  405  675]	[ 90 570 405 675]
791.586	0.2	1188638	1188878	BlankScreen	VGS	107	4	False	lime	600	[1350 1830  405  675]	[ 90 570 405 675]
791.826	1.0	1188878	1189878	ELCue	VGS	107	4	False	lime	600	[1350 1830  405  675]	[ 90 570 405 675]
793.235	6.0	1190287	1196313	ShowFixation	VGS	108	4	False	lime	40	[ 90 570 405 675]	[1350 1830  405  675]
799.261	0.2	1196313	1196552	BlankScreen	VGS	108	4	False	lime	40	[ 90 570 405 675]	[1350 1830  405  675]
799.5	1.0	1196552	1197552	ELCue	VGS	108	4	False	lime	40	[ 90 570 405 675]	[1350 1830  405  675]
800.907	2.0	1197959	1199987	ShowFixation	ANTI	109	4	False	red	40	[1350 1830  405  675]	[ 90 570 405 675]
802.935	0.2	1199987	1200222	BlankScreen	ANTI	109	4	False	red	40	[1350 1830  405  675]	[ 90 570 405 675]
803.17	1.0	1200222	1201222	ELCue	ANTI	109	4	False	red	40	[1350 1830  405  675]	[ 90 570 405 675]
804.579	2.0	1201631	1203657	ShowFixation	VGS	110	4	False	lime	460	[1035 1515  405  675]	[405 885 405 675]
806.605	0.2	1203657	1203892	BlankScreen	VGS	110	4	False	lime	460	[1035 1515  405  675]	[405 885 405 675]
806.84	1.0	1203892	1204892	ELCue	VGS	110	4	False	lime	460	[1035 1515  405  675]	[405 885 405 675]
808.247	6.0	1205299	1211327	ShowFixation	ANTI	111	4	False	red	40	[1350 1830  405  675]	[ 90 570 405 675]
814.275	0.2	1211327	1211567	BlankScreen	ANTI	111	4	False	red	40	[1350 1830  405  675]	[ 90 570 405 675]
814.515	1.0	1211567	1212567	ELCue	ANTI	111	4	False	red	40	[1350 1830  405  675]	[ 90 570 405 675]
815.923	2.0	1212975	1215002	ShowFixation	ANTI	112	4	False	red	460	[405 885 405 675]	[1035 1515  405  675]
817.95	0.2	1215002	1215237	BlankScreen	ANTI	112	4	False	red	460	[405 885 405 675]	[1035 1515  405  675]
818.185	1.0	1215237	1216237	ELCue	ANTI	112	4	False	red	460	[405 885 405 675]	[1035 1515  405  675]
