onset	duration	startTime	stopTime	eventIdentifier	trial_type	trial_number	block_number	is_practice	fixation_color	cue_side	aoi_correct	aoi_incorrect
0.153	2.0	1477335	1479375	ShowFixation	VGS	1	1	True	lime	40	[ 90 570 405 675]	[1350 1830  405  675]
2.193	0.2	1479375	1479610	BlankScreen	VGS	1	1	True	lime	40	[ 90 570 405 675]	[1350 1830  405  675]
2.428	1.0	1479610	1480651	ELCue	VGS	1	1	True	lime	40	[ 90 570 405 675]	[1350 1830  405  675]
3.886	6.0	1481068	1487696	ShowFixation	ANTI	2	1	True	red	600	[ 90 570 405 675]	[1350 1830  405  675]
10.514	0.2	1487696	1487935	BlankScreen	ANTI	2	1	True	red	600	[ 90 570 405 675]	[1350 1830  405  675]
10.753	1.0	1487935	1488975	ELCue	ANTI	2	1	True	red	600	[ 90 570 405 675]	[1350 1830  405  675]
12.214	2.0	1489396	1492004	ShowFixation	VGS	3	1	True	lime	460	[1035 1515  405  675]	[405 885 405 675]
14.822	0.2	1492004	1492223	BlankScreen	VGS	3	1	True	lime	460	[1035 1515  405  675]	[405 885 405 675]
15.041	1.0	1492223	1493246	ELCue	VGS	3	1	True	lime	460	[1035 1515  405  675]	[405 885 405 675]
16.45	6.0	1493632	1500292	ShowFixation	VGS	4	1	True	lime	460	[1035 1515  405  675]	[405 885 405 675]
23.11	0.2	1500292	1500531	BlankScreen	VGS	4	1	True	lime	460	[1035 1515  405  675]	[405 885 405 675]
23.349	1.0	1500531	1501571	ELCue	VGS	4	1	True	lime	460	[1035 1515  405  675]	[405 885 405 675]
24.81	2.0	1501992	1504600	ShowFixation	ANTI	5	1	True	red	460	[405 885 405 675]	[1035 1515  405  675]
27.418	0.2	1504600	1504818	BlankScreen	ANTI	5	1	True	red	460	[405 885 405 675]	[1035 1515  405  675]
27.636	1.0	1504818	1505842	ELCue	ANTI	5	1	True	red	460	[405 885 405 675]	[1035 1515  405  675]
29.1	2.0	1506282	1508887	ShowFixation	VGS	6	1	True	lime	600	[1350 1830  405  675]	[ 90 570 405 675]
31.705	0.2	1508887	1509123	BlankScreen	VGS	6	1	True	lime	600	[1350 1830  405  675]	[ 90 570 405 675]
31.941	1.0	1509123	1510163	ELCue	VGS	6	1	True	lime	600	[1350 1830  405  675]	[ 90 570 405 675]
33.4	6.0	1510582	1517208	ShowFixation	ANTI	7	1	True	red	180	[1035 1515  405  675]	[405 885 405 675]
40.026	0.2	1517208	1517448	BlankScreen	ANTI	7	1	True	red	180	[1035 1515  405  675]	[405 885 405 675]
40.266	1.0	1517448	1518488	ELCue	ANTI	7	1	True	red	180	[1035 1515  405  675]	[405 885 405 675]
41.726	6.0	1518908	1525533	ShowFixation	ANTI	8	1	True	red	460	[405 885 405 675]	[1035 1515  405  675]
48.351	0.2	1525533	1525772	BlankScreen	ANTI	8	1	True	red	460	[405 885 405 675]	[1035 1515  405  675]
48.59	1.0	1525772	1526813	ELCue	ANTI	8	1	True	red	460	[405 885 405 675]	[1035 1515  405  675]
50.049	6.0	1527231	1533858	ShowFixation	VGS	9	1	True	lime	600	[1350 1830  405  675]	[ 90 570 405 675]
56.676	0.2	1533858	1534097	BlankScreen	VGS	9	1	True	lime	600	[1350 1830  405  675]	[ 90 570 405 675]
56.916	1.0	1534098	1535138	ELCue	VGS	9	1	True	lime	600	[1350 1830  405  675]	[ 90 570 405 675]
58.37	2.0	1535552	1538184	ShowFixation	ANTI	10	1	True	red	40	[1350 1830  405  675]	[ 90 570 405 675]
61.002	0.2	1538184	1538419	BlankScreen	ANTI	10	1	True	red	40	[1350 1830  405  675]	[ 90 570 405 675]
61.237	1.0	1538419	1539459	ELCue	ANTI	10	1	True	red	40	[1350 1830  405  675]	[ 90 570 405 675]
62.694	6.0	1539876	1546505	ShowFixation	ANTI	11	1	True	red	40	[1350 1830  405  675]	[ 90 570 405 675]
69.323	0.2	1546505	1546744	BlankScreen	ANTI	11	1	True	red	40	[1350 1830  405  675]	[ 90 570 405 675]
69.562	1.0	1546744	1547784	ELCue	ANTI	11	1	True	red	40	[1350 1830  405  675]	[ 90 570 405 675]
71.022	2.0	1548204	1550830	ShowFixation	VGS	12	1	True	lime	180	[405 885 405 675]	[1035 1515  405  675]
73.648	0.2	1550830	1551065	BlankScreen	VGS	12	1	True	lime	180	[405 885 405 675]	[1035 1515  405  675]
73.883	1.0	1551065	1552105	ELCue	VGS	12	1	True	lime	180	[405 885 405 675]	[1035 1515  405  675]
75.335	6.0	1552517	1559151	ShowFixation	VGS	13	1	True	lime	180	[405 885 405 675]	[1035 1515  405  675]
81.969	0.2	1559151	1559390	BlankScreen	VGS	13	1	True	lime	180	[405 885 405 675]	[1035 1515  405  675]
82.208	1.0	1559390	1560430	ELCue	VGS	13	1	True	lime	180	[405 885 405 675]	[1035 1515  405  675]
83.664	6.0	1560846	1567475	ShowFixation	VGS	14	1	True	lime	40	[ 90 570 405 675]	[1350 1830  405  675]
90.293	0.2	1567475	1567715	BlankScreen	VGS	14	1	True	lime	40	[ 90 570 405 675]	[1350 1830  405  675]
90.533	1.0	1567715	1568755	ELCue	VGS	14	1	True	lime	40	[ 90 570 405 675]	[1350 1830  405  675]
91.99	2.0	1569172	1571784	ShowFixation	ANTI	15	1	True	red	600	[ 90 570 405 675]	[1350 1830  405  675]
94.602	0.2	1571784	1572002	BlankScreen	ANTI	15	1	True	red	600	[ 90 570 405 675]	[1350 1830  405  675]
94.82	1.0	1572002	1573025	ELCue	ANTI	15	1	True	red	600	[ 90 570 405 675]	[1350 1830  405  675]
96.26	2.0	1573442	1576071	ShowFixation	ANTI	16	1	True	red	180	[1035 1515  405  675]	[405 885 405 675]
98.889	0.2	1576071	1576307	BlankScreen	ANTI	16	1	True	red	180	[1035 1515  405  675]	[405 885 405 675]
99.125	1.0	1576307	1577347	ELCue	ANTI	16	1	True	red	180	[1035 1515  405  675]	[405 885 405 675]
138.704	2.0	1615886	1617912	ShowFixation	VGS	17	2	False	lime	600	[1350 1830  405  675]	[ 90 570 405 675]
140.73	0.2	1617912	1618148	BlankScreen	VGS	17	2	False	lime	600	[1350 1830  405  675]	[ 90 570 405 675]
140.966	1.0	1618148	1619148	ELCue	VGS	17	2	False	lime	600	[1350 1830  405  675]	[ 90 570 405 675]
142.389	6.0	1619571	1625599	ShowFixation	ANTI	18	2	False	red	180	[1035 1515  405  675]	[405 885 405 675]
148.417	0.2	1625599	1625839	BlankScreen	ANTI	18	2	False	red	180	[1035 1515  405  675]	[405 885 405 675]
148.657	1.0	1625839	1626839	ELCue	ANTI	18	2	False	red	180	[1035 1515  405  675]	[405 885 405 675]
150.08	2.0	1627262	1629290	ShowFixation	ANTI	19	2	False	red	40	[1350 1830  405  675]	[ 90 570 405 675]
152.108	0.2	1629290	1629526	BlankScreen	ANTI	19	2	False	red	40	[1350 1830  405  675]	[ 90 570 405 675]
152.344	1.0	1629526	1630526	ELCue	ANTI	19	2	False	red	40	[1350 1830  405  675]	[ 90 570 405 675]
153.763	2.0	1630945	1632977	ShowFixation	ANTI	20	2	False	red	180	[1035 1515  405  675]	[405 885 405 675]
155.795	0.2	1632977	1633213	BlankScreen	ANTI	20	2	False	red	180	[1035 1515  405  675]	[405 885 405 675]
156.031	1.0	1633213	1634213	ELCue	ANTI	20	2	False	red	180	[1035 1515  405  675]	[405 885 405 675]
157.452	2.0	1634634	1636664	ShowFixation	ANTI	21	2	False	red	180	[1035 1515  405  675]	[405 885 405 675]
159.482	0.2	1636664	1636900	BlankScreen	ANTI	21	2	False	red	180	[1035 1515  405  675]	[405 885 405 675]
159.718	1.0	1636900	1637900	ELCue	ANTI	21	2	False	red	180	[1035 1515  405  675]	[405 885 405 675]
161.14	6.0	1638322	1644351	ShowFixation	VGS	22	2	False	lime	600	[1350 1830  405  675]	[ 90 570 405 675]
167.169	0.2	1644351	1644591	BlankScreen	VGS	22	2	False	lime	600	[1350 1830  405  675]	[ 90 570 405 675]
167.409	1.0	1644591	1645591	ELCue	VGS	22	2	False	lime	600	[1350 1830  405  675]	[ 90 570 405 675]
168.829	6.0	1646011	1652043	ShowFixation	VGS	23	2	False	lime	600	[1350 1830  405  675]	[ 90 570 405 675]
174.861	0.2	1652043	1652281	BlankScreen	VGS	23	2	False	lime	600	[1350 1830  405  675]	[ 90 570 405 675]
175.099	1.0	1652281	1653281	ELCue	VGS	23	2	False	lime	600	[1350 1830  405  675]	[ 90 570 405 675]
176.521	2.0	1653703	1655734	ShowFixation	ANTI	24	2	False	red	600	[ 90 570 405 675]	[1350 1830  405  675]
178.552	0.2	1655734	1655968	BlankScreen	ANTI	24	2	False	red	600	[ 90 570 405 675]	[1350 1830  405  675]
178.787	1.0	1655969	1656969	ELCue	ANTI	24	2	False	red	600	[ 90 570 405 675]	[1350 1830  405  675]
180.204	6.0	1657386	1663421	ShowFixation	VGS	25	2	False	lime	40	[ 90 570 405 675]	[1350 1830  405  675]
186.239	0.2	1663421	1663660	BlankScreen	VGS	25	2	False	lime	40	[ 90 570 405 675]	[1350 1830  405  675]
186.478	1.0	1663660	1664660	ELCue	VGS	25	2	False	lime	40	[ 90 570 405 675]	[1350 1830  405  675]
187.9	2.0	1665082	1667112	ShowFixation	VGS	26	2	False	lime	180	[405 885 405 675]	[1035 1515  405  675]
189.93	0.2	1667112	1667347	BlankScreen	VGS	26	2	False	lime	180	[405 885 405 675]	[1035 1515  405  675]
190.165	1.0	1667347	1668347	ELCue	VGS	26	2	False	lime	180	[405 885 405 675]	[1035 1515  405  675]
191.587	6.0	1668769	1674799	ShowFixation	ANTI	27	2	False	red	180	[1035 1515  405  675]	[405 885 405 675]
197.617	0.2	1674799	1675038	BlankScreen	ANTI	27	2	False	red	180	[1035 1515  405  675]	[405 885 405 675]
197.856	1.0	1675038	1676038	ELCue	ANTI	27	2	False	red	180	[1035 1515  405  675]	[405 885 405 675]
199.274	2.0	1676456	1678490	ShowFixation	VGS	28	2	False	lime	40	[ 90 570 405 675]	[1350 1830  405  675]
201.308	0.2	1678490	1678725	BlankScreen	VGS	28	2	False	lime	40	[ 90 570 405 675]	[1350 1830  405  675]
201.543	1.0	1678725	1679725	ELCue	VGS	28	2	False	lime	40	[ 90 570 405 675]	[1350 1830  405  675]
202.966	6.0	1680148	1686177	ShowFixation	ANTI	29	2	False	red	460	[405 885 405 675]	[1035 1515  405  675]
208.995	0.2	1686177	1686416	BlankScreen	ANTI	29	2	False	red	460	[405 885 405 675]	[1035 1515  405  675]
209.234	1.0	1686416	1687416	ELCue	ANTI	29	2	False	red	460	[405 885 405 675]	[1035 1515  405  675]
210.657	2.0	1687839	1689868	ShowFixation	ANTI	30	2	False	red	460	[405 885 405 675]	[1035 1515  405  675]
212.686	0.2	1689868	1690103	BlankScreen	ANTI	30	2	False	red	460	[405 885 405 675]	[1035 1515  405  675]
212.921	1.0	1690103	1691103	ELCue	ANTI	30	2	False	red	460	[405 885 405 675]	[1035 1515  405  675]
214.345	6.0	1691527	1697555	ShowFixation	VGS	31	2	False	lime	460	[1035 1515  405  675]	[405 885 405 675]
220.373	0.2	1697555	1697794	BlankScreen	VGS	31	2	False	lime	460	[1035 1515  405  675]	[405 885 405 675]
220.612	1.0	1697794	1698794	ELCue	VGS	31	2	False	lime	460	[1035 1515  405  675]	[405 885 405 675]
222.034	6.0	1699216	1705246	ShowFixation	VGS	32	2	False	lime	460	[1035 1515  405  675]	[405 885 405 675]
228.064	0.2	1705246	1705485	BlankScreen	VGS	32	2	False	lime	460	[1035 1515  405  675]	[405 885 405 675]
228.303	1.0	1705485	1706485	ELCue	VGS	32	2	False	lime	460	[1035 1515  405  675]	[405 885 405 675]
229.724	6.0	1706906	1712937	ShowFixation	ANTI	33	2	False	red	40	[1350 1830  405  675]	[ 90 570 405 675]
235.755	0.2	1712937	1713176	BlankScreen	ANTI	33	2	False	red	40	[1350 1830  405  675]	[ 90 570 405 675]
235.994	1.0	1713176	1714176	ELCue	ANTI	33	2	False	red	40	[1350 1830  405  675]	[ 90 570 405 675]
237.419	6.0	1714601	1720627	ShowFixation	ANTI	34	2	False	red	600	[ 90 570 405 675]	[1350 1830  405  675]
243.445	0.2	1720627	1720867	BlankScreen	ANTI	34	2	False	red	600	[ 90 570 405 675]	[1350 1830  405  675]
243.685	1.0	1720867	1721867	ELCue	ANTI	34	2	False	red	600	[ 90 570 405 675]	[1350 1830  405  675]
245.106	2.0	1722288	1724318	ShowFixation	VGS	35	2	False	lime	600	[1350 1830  405  675]	[ 90 570 405 675]
247.136	0.2	1724318	1724554	BlankScreen	VGS	35	2	False	lime	600	[1350 1830  405  675]	[ 90 570 405 675]
247.372	1.0	1724554	1725554	ELCue	VGS	35	2	False	lime	600	[1350 1830  405  675]	[ 90 570 405 675]
248.795	6.0	1725977	1732005	ShowFixation	ANTI	36	2	False	red	600	[ 90 570 405 675]	[1350 1830  405  675]
254.823	0.2	1732005	1732245	BlankScreen	ANTI	36	2	False	red	600	[ 90 570 405 675]	[1350 1830  405  675]
255.063	1.0	1732245	1733245	ELCue	ANTI	36	2	False	red	600	[ 90 570 405 675]	[1350 1830  405  675]
256.482	6.0	1733664	1739696	ShowFixation	VGS	37	2	False	lime	180	[405 885 405 675]	[1035 1515  405  675]
262.514	0.2	1739696	1739936	BlankScreen	VGS	37	2	False	lime	180	[405 885 405 675]	[1035 1515  405  675]
262.754	1.0	1739936	1740936	ELCue	VGS	37	2	False	lime	180	[405 885 405 675]	[1035 1515  405  675]
264.181	2.0	1741363	1743387	ShowFixation	VGS	38	2	False	lime	180	[405 885 405 675]	[1035 1515  405  675]
266.205	0.2	1743387	1743623	BlankScreen	VGS	38	2	False	lime	180	[405 885 405 675]	[1035 1515  405  675]
266.441	1.0	1743623	1744623	ELCue	VGS	38	2	False	lime	180	[405 885 405 675]	[1035 1515  405  675]
267.831	2.0	1745013	1747041	ShowFixation	ANTI	39	2	False	red	40	[1350 1830  405  675]	[ 90 570 405 675]
269.859	0.2	1747041	1747276	BlankScreen	ANTI	39	2	False	red	40	[1350 1830  405  675]	[ 90 570 405 675]
270.094	1.0	1747276	1748276	ELCue	ANTI	39	2	False	red	40	[1350 1830  405  675]	[ 90 570 405 675]
271.514	6.0	1748696	1754728	ShowFixation	VGS	40	2	False	lime	40	[ 90 570 405 675]	[1350 1830  405  675]
277.546	0.2	1754728	1754967	BlankScreen	VGS	40	2	False	lime	40	[ 90 570 405 675]	[1350 1830  405  675]
277.785	1.0	1754967	1755967	ELCue	VGS	40	2	False	lime	40	[ 90 570 405 675]	[1350 1830  405  675]
279.208	2.0	1756390	1758419	ShowFixation	ANTI	41	2	False	red	460	[405 885 405 675]	[1035 1515  405  675]
281.237	0.2	1758419	1758654	BlankScreen	ANTI	41	2	False	red	460	[405 885 405 675]	[1035 1515  405  675]
281.472	1.0	1758654	1759654	ELCue	ANTI	41	2	False	red	460	[405 885 405 675]	[1035 1515  405  675]
282.898	6.0	1760080	1766106	ShowFixation	VGS	42	2	False	lime	180	[405 885 405 675]	[1035 1515  405  675]
288.924	0.2	1766106	1766345	BlankScreen	VGS	42	2	False	lime	180	[405 885 405 675]	[1035 1515  405  675]
289.164	1.0	1766346	1767346	ELCue	VGS	42	2	False	lime	180	[405 885 405 675]	[1035 1515  405  675]
290.586	2.0	1767768	1769797	ShowFixation	VGS	43	2	False	lime	460	[1035 1515  405  675]	[405 885 405 675]
292.616	0.2	1769798	1770032	BlankScreen	VGS	43	2	False	lime	460	[1035 1515  405  675]	[405 885 405 675]
292.851	1.0	1770033	1771033	ELCue	VGS	43	2	False	lime	460	[1035 1515  405  675]	[405 885 405 675]
294.268	2.0	1771450	1773484	ShowFixation	ANTI	44	2	False	red	600	[ 90 570 405 675]	[1350 1830  405  675]
296.303	0.2	1773485	1773720	BlankScreen	ANTI	44	2	False	red	600	[ 90 570 405 675]	[1350 1830  405  675]
296.538	1.0	1773720	1774720	ELCue	ANTI	44	2	False	red	600	[ 90 570 405 675]	[1350 1830  405  675]
297.958	2.0	1775140	1777172	ShowFixation	VGS	45	2	False	lime	40	[ 90 570 405 675]	[1350 1830  405  675]
299.99	0.2	1777172	1777407	BlankScreen	VGS	45	2	False	lime	40	[ 90 570 405 675]	[1350 1830  405  675]
300.225	1.0	1777407	1778407	ELCue	VGS	45	2	False	lime	40	[ 90 570 405 675]	[1350 1830  405  675]
301.642	6.0	1778824	1784858	ShowFixation	ANTI	46	2	False	red	460	[405 885 405 675]	[1035 1515  405  675]
307.676	0.2	1784858	1785098	BlankScreen	ANTI	46	2	False	red	460	[405 885 405 675]	[1035 1515  405  675]
307.916	1.0	1785098	1786098	ELCue	ANTI	46	2	False	red	460	[405 885 405 675]	[1035 1515  405  675]
309.341	2.0	1786523	1788549	ShowFixation	VGS	47	2	False	lime	460	[1035 1515  405  675]	[405 885 405 675]
311.367	0.2	1788549	1788785	BlankScreen	VGS	47	2	False	lime	460	[1035 1515  405  675]	[405 885 405 675]
311.603	1.0	1788785	1789785	ELCue	VGS	47	2	False	lime	460	[1035 1515  405  675]	[405 885 405 675]
313.02	6.0	1790202	1796236	ShowFixation	ANTI	48	2	False	red	40	[1350 1830  405  675]	[ 90 570 405 675]
319.054	0.2	1796236	1796476	BlankScreen	ANTI	48	2	False	red	40	[1350 1830  405  675]	[ 90 570 405 675]
319.294	1.0	1796476	1797476	ELCue	ANTI	48	2	False	red	40	[1350 1830  405  675]	[ 90 570 405 675]
351.619	2.0	1828801	1830841	ShowFixation	VGS	49	3	False	lime	600	[1350 1830  405  675]	[ 90 570 405 675]
353.659	0.2	1830841	1831076	BlankScreen	VGS	49	3	False	lime	600	[1350 1830  405  675]	[ 90 570 405 675]
353.894	1.0	1831076	1832076	ELCue	VGS	49	3	False	lime	600	[1350 1830  405  675]	[ 90 570 405 675]
355.319	6.0	1832501	1838528	ShowFixation	ANTI	50	3	False	red	460	[405 885 405 675]	[1035 1515  405  675]
361.346	0.2	1838528	1838767	BlankScreen	ANTI	50	3	False	red	460	[405 885 405 675]	[1035 1515  405  675]
361.585	1.0	1838767	1839767	ELCue	ANTI	50	3	False	red	460	[405 885 405 675]	[1035 1515  405  675]
363.007	6.0	1840189	1846219	ShowFixation	VGS	51	3	False	lime	40	[ 90 570 405 675]	[1350 1830  405  675]
369.037	0.2	1846219	1846458	BlankScreen	VGS	51	3	False	lime	40	[ 90 570 405 675]	[1350 1830  405  675]
369.276	1.0	1846458	1847458	ELCue	VGS	51	3	False	lime	40	[ 90 570 405 675]	[1350 1830  405  675]
370.701	2.0	1847883	1849910	ShowFixation	ANTI	52	3	False	red	460	[405 885 405 675]	[1035 1515  405  675]
372.728	0.2	1849910	1850145	BlankScreen	ANTI	52	3	False	red	460	[405 885 405 675]	[1035 1515  405  675]
372.963	1.0	1850145	1851145	ELCue	ANTI	52	3	False	red	460	[405 885 405 675]	[1035 1515  405  675]
374.367	2.0	1851549	1853580	ShowFixation	VGS	53	3	False	lime	460	[1035 1515  405  675]	[405 885 405 675]
376.398	0.2	1853580	1853816	BlankScreen	VGS	53	3	False	lime	460	[1035 1515  405  675]	[405 885 405 675]
376.634	1.0	1853816	1854816	ELCue	VGS	53	3	False	lime	460	[1035 1515  405  675]	[405 885 405 675]
378.053	6.0	1855235	1861267	ShowFixation	ANTI	54	3	False	red	180	[1035 1515  405  675]	[405 885 405 675]
384.085	0.2	1861267	1861506	BlankScreen	ANTI	54	3	False	red	180	[1035 1515  405  675]	[405 885 405 675]
384.324	1.0	1861506	1862506	ELCue	ANTI	54	3	False	red	180	[1035 1515  405  675]	[405 885 405 675]
385.75	6.0	1862932	1868958	ShowFixation	VGS	55	3	False	lime	40	[ 90 570 405 675]	[1350 1830  405  675]
391.776	0.2	1868958	1869197	BlankScreen	VGS	55	3	False	lime	40	[ 90 570 405 675]	[1350 1830  405  675]
392.015	1.0	1869197	1870197	ELCue	VGS	55	3	False	lime	40	[ 90 570 405 675]	[1350 1830  405  675]
393.438	6.0	1870620	1876649	ShowFixation	ANTI	56	3	False	red	40	[1350 1830  405  675]	[ 90 570 405 675]
399.467	0.2	1876649	1876888	BlankScreen	ANTI	56	3	False	red	40	[1350 1830  405  675]	[ 90 570 405 675]
399.706	1.0	1876888	1877888	ELCue	ANTI	56	3	False	red	40	[1350 1830  405  675]	[ 90 570 405 675]
401.128	2.0	1878310	1880341	ShowFixation	VGS	57	3	False	lime	180	[405 885 405 675]	[1035 1515  405  675]
403.159	0.2	1880341	1880575	BlankScreen	VGS	57	3	False	lime	180	[405 885 405 675]	[1035 1515  405  675]
403.393	1.0	1880575	1881575	ELCue	VGS	57	3	False	lime	180	[405 885 405 675]	[1035 1515  405  675]
404.814	2.0	1881996	1884027	ShowFixation	VGS	58	3	False	lime	40	[ 90 570 405 675]	[1350 1830  405  675]
406.845	0.2	1884027	1884263	BlankScreen	VGS	58	3	False	lime	40	[ 90 570 405 675]	[1350 1830  405  675]
407.081	1.0	1884263	1885263	ELCue	VGS	58	3	False	lime	40	[ 90 570 405 675]	[1350 1830  405  675]
408.498	2.0	1885680	1887715	ShowFixation	ANTI	59	3	False	red	180	[1035 1515  405  675]	[405 885 405 675]
410.533	0.2	1887715	1887950	BlankScreen	ANTI	59	3	False	red	180	[1035 1515  405  675]	[405 885 405 675]
410.768	1.0	1887950	1888950	ELCue	ANTI	59	3	False	red	180	[1035 1515  405  675]	[405 885 405 675]
412.191	6.0	1889373	1895402	ShowFixation	VGS	60	3	False	lime	600	[1350 1830  405  675]	[ 90 570 405 675]
418.22	0.2	1895402	1895641	BlankScreen	VGS	60	3	False	lime	600	[1350 1830  405  675]	[ 90 570 405 675]
418.459	1.0	1895641	1896641	ELCue	VGS	60	3	False	lime	600	[1350 1830  405  675]	[ 90 570 405 675]
419.883	6.0	1897065	1903093	ShowFixation	ANTI	61	3	False	red	460	[405 885 405 675]	[1035 1515  405  675]
425.911	0.2	1903093	1903332	BlankScreen	ANTI	61	3	False	red	460	[405 885 405 675]	[1035 1515  405  675]
426.15	1.0	1903332	1904332	ELCue	ANTI	61	3	False	red	460	[405 885 405 675]	[1035 1515  405  675]
427.574	6.0	1904756	1910784	ShowFixation	ANTI	62	3	False	red	180	[1035 1515  405  675]	[405 885 405 675]
433.602	0.2	1910784	1911023	BlankScreen	ANTI	62	3	False	red	180	[1035 1515  405  675]	[405 885 405 675]
433.841	1.0	1911023	1912023	ELCue	ANTI	62	3	False	red	180	[1035 1515  405  675]	[405 885 405 675]
435.259	6.0	1912441	1918475	ShowFixation	VGS	63	3	False	lime	460	[1035 1515  405  675]	[405 885 405 675]
441.293	0.2	1918475	1918714	BlankScreen	VGS	63	3	False	lime	460	[1035 1515  405  675]	[405 885 405 675]
441.532	1.0	1918714	1919714	ELCue	VGS	63	3	False	lime	460	[1035 1515  405  675]	[405 885 405 675]
442.95	6.0	1920132	1926165	ShowFixation	VGS	64	3	False	lime	180	[405 885 405 675]	[1035 1515  405  675]
448.983	0.2	1926165	1926405	BlankScreen	VGS	64	3	False	lime	180	[405 885 405 675]	[1035 1515  405  675]
449.223	1.0	1926405	1927405	ELCue	VGS	64	3	False	lime	180	[405 885 405 675]	[1035 1515  405  675]
450.641	6.0	1927823	1933856	ShowFixation	ANTI	65	3	False	red	40	[1350 1830  405  675]	[ 90 570 405 675]
456.674	0.2	1933856	1934096	BlankScreen	ANTI	65	3	False	red	40	[1350 1830  405  675]	[ 90 570 405 675]
456.914	1.0	1934096	1935096	ELCue	ANTI	65	3	False	red	40	[1350 1830  405  675]	[ 90 570 405 675]
458.334	6.0	1935516	1941547	ShowFixation	ANTI	66	3	False	red	600	[ 90 570 405 675]	[1350 1830  405  675]
464.365	0.2	1941547	1941787	BlankScreen	ANTI	66	3	False	red	600	[ 90 570 405 675]	[1350 1830  405  675]
464.605	1.0	1941787	1942787	ELCue	ANTI	66	3	False	red	600	[ 90 570 405 675]	[1350 1830  405  675]
466.022	2.0	1943204	1945238	ShowFixation	VGS	67	3	False	lime	180	[405 885 405 675]	[1035 1515  405  675]
468.056	0.2	1945238	1945474	BlankScreen	VGS	67	3	False	lime	180	[405 885 405 675]	[1035 1515  405  675]
468.292	1.0	1945474	1946474	ELCue	VGS	67	3	False	lime	180	[405 885 405 675]	[1035 1515  405  675]
469.715	2.0	1946897	1948925	ShowFixation	ANTI	68	3	False	red	600	[ 90 570 405 675]	[1350 1830  405  675]
471.743	0.2	1948925	1949160	BlankScreen	ANTI	68	3	False	red	600	[ 90 570 405 675]	[1350 1830  405  675]
471.978	1.0	1949160	1950160	ELCue	ANTI	68	3	False	red	600	[ 90 570 405 675]	[1350 1830  405  675]
473.439	2.0	1950621	1952645	ShowFixation	ANTI	69	3	False	red	40	[1350 1830  405  675]	[ 90 570 405 675]
475.463	0.2	1952645	1952881	BlankScreen	ANTI	69	3	False	red	40	[1350 1830  405  675]	[ 90 570 405 675]
475.699	1.0	1952881	1953881	ELCue	ANTI	69	3	False	red	40	[1350 1830  405  675]	[ 90 570 405 675]
477.105	2.0	1954287	1956316	ShowFixation	ANTI	70	3	False	red	460	[405 885 405 675]	[1035 1515  405  675]
479.134	0.2	1956316	1956551	BlankScreen	ANTI	70	3	False	red	460	[405 885 405 675]	[1035 1515  405  675]
479.369	1.0	1956551	1957551	ELCue	ANTI	70	3	False	red	460	[405 885 405 675]	[1035 1515  405  675]
480.793	2.0	1957975	1960003	ShowFixation	ANTI	71	3	False	red	180	[1035 1515  405  675]	[405 885 405 675]
482.821	0.2	1960003	1960238	BlankScreen	ANTI	71	3	False	red	180	[1035 1515  405  675]	[405 885 405 675]
483.056	1.0	1960238	1961238	ELCue	ANTI	71	3	False	red	180	[1035 1515  405  675]	[405 885 405 675]
484.445	6.0	1961627	1967656	ShowFixation	ANTI	72	3	False	red	600	[ 90 570 405 675]	[1350 1830  405  675]
490.474	0.2	1967656	1967896	BlankScreen	ANTI	72	3	False	red	600	[ 90 570 405 675]	[1350 1830  405  675]
490.714	1.0	1967896	1968896	ELCue	ANTI	72	3	False	red	600	[ 90 570 405 675]	[1350 1830  405  675]
492.138	2.0	1969320	1971347	ShowFixation	VGS	73	3	False	lime	40	[ 90 570 405 675]	[1350 1830  405  675]
494.165	0.2	1971347	1971583	BlankScreen	VGS	73	3	False	lime	40	[ 90 570 405 675]	[1350 1830  405  675]
494.401	1.0	1971583	1972583	ELCue	VGS	73	3	False	lime	40	[ 90 570 405 675]	[1350 1830  405  675]
495.824	6.0	1973006	1979034	ShowFixation	VGS	74	3	False	lime	460	[1035 1515  405  675]	[405 885 405 675]
501.852	0.2	1979034	1979273	BlankScreen	VGS	74	3	False	lime	460	[1035 1515  405  675]	[405 885 405 675]
502.091	1.0	1979273	1980273	ELCue	VGS	74	3	False	lime	460	[1035 1515  405  675]	[405 885 405 675]
503.514	6.0	1980696	1986725	ShowFixation	VGS	75	3	False	lime	180	[405 885 405 675]	[1035 1515  405  675]
509.543	0.2	1986725	1986964	BlankScreen	VGS	75	3	False	lime	180	[405 885 405 675]	[1035 1515  405  675]
509.782	1.0	1986964	1987964	ELCue	VGS	75	3	False	lime	180	[405 885 405 675]	[1035 1515  405  675]
511.202	6.0	1988384	1994416	ShowFixation	VGS	76	3	False	lime	600	[1350 1830  405  675]	[ 90 570 405 675]
517.234	0.2	1994416	1994655	BlankScreen	VGS	76	3	False	lime	600	[1350 1830  405  675]	[ 90 570 405 675]
517.473	1.0	1994655	1995655	ELCue	VGS	76	3	False	lime	600	[1350 1830  405  675]	[ 90 570 405 675]
518.894	2.0	1996076	1998107	ShowFixation	ANTI	77	3	False	red	40	[1350 1830  405  675]	[ 90 570 405 675]
520.925	0.2	1998107	1998343	BlankScreen	ANTI	77	3	False	red	40	[1350 1830  405  675]	[ 90 570 405 675]
521.161	1.0	1998343	1999343	ELCue	ANTI	77	3	False	red	40	[1350 1830  405  675]	[ 90 570 405 675]
522.583	2.0	1999765	2001794	ShowFixation	VGS	78	3	False	lime	600	[1350 1830  405  675]	[ 90 570 405 675]
524.612	0.2	2001794	2002029	BlankScreen	VGS	78	3	False	lime	600	[1350 1830  405  675]	[ 90 570 405 675]
524.847	1.0	2002029	2003029	ELCue	VGS	78	3	False	lime	600	[1350 1830  405  675]	[ 90 570 405 675]
526.27	2.0	2003452	2005481	ShowFixation	ANTI	79	3	False	red	600	[ 90 570 405 675]	[1350 1830  405  675]
528.3	0.2	2005482	2005716	BlankScreen	ANTI	79	3	False	red	600	[ 90 570 405 675]	[1350 1830  405  675]
528.535	1.0	2005717	2006717	ELCue	ANTI	79	3	False	red	600	[ 90 570 405 675]	[1350 1830  405  675]
529.956	2.0	2007138	2009168	ShowFixation	VGS	80	3	False	lime	460	[1035 1515  405  675]	[405 885 405 675]
531.986	0.2	2009168	2009403	BlankScreen	VGS	80	3	False	lime	460	[1035 1515  405  675]	[405 885 405 675]
532.222	1.0	2009404	2010404	ELCue	VGS	80	3	False	lime	460	[1035 1515  405  675]	[405 885 405 675]
574.368	6.0	2051550	2057579	ShowFixation	VGS	81	4	False	lime	460	[1035 1515  405  675]	[405 885 405 675]
580.397	0.2	2057579	2057819	BlankScreen	VGS	81	4	False	lime	460	[1035 1515  405  675]	[405 885 405 675]
580.637	1.0	2057819	2058819	ELCue	VGS	81	4	False	lime	460	[1035 1515  405  675]	[405 885 405 675]
582.06	2.0	2059242	2061270	ShowFixation	VGS	82	4	False	lime	180	[405 885 405 675]	[1035 1515  405  675]
584.088	0.2	2061270	2061505	BlankScreen	VGS	82	4	False	lime	180	[405 885 405 675]	[1035 1515  405  675]
584.323	1.0	2061505	2062505	ELCue	VGS	82	4	False	lime	180	[405 885 405 675]	[1035 1515  405  675]
585.709	6.0	2062891	2068924	ShowFixation	ANTI	83	4	False	red	40	[1350 1830  405  675]	[ 90 570 405 675]
591.742	0.2	2068924	2069163	BlankScreen	ANTI	83	4	False	red	40	[1350 1830  405  675]	[ 90 570 405 675]
591.981	1.0	2069163	2070163	ELCue	ANTI	83	4	False	red	40	[1350 1830  405  675]	[ 90 570 405 675]
593.409	6.0	2070591	2076631	ShowFixation	ANTI	84	4	False	red	40	[1350 1830  405  675]	[ 90 570 405 675]
599.449	0.2	2076631	2076871	BlankScreen	ANTI	84	4	False	red	40	[1350 1830  405  675]	[ 90 570 405 675]
599.689	1.0	2076871	2077871	ELCue	ANTI	84	4	False	red	40	[1350 1830  405  675]	[ 90 570 405 675]
601.112	6.0	2078294	2084322	ShowFixation	VGS	85	4	False	lime	600	[1350 1830  405  675]	[ 90 570 405 675]
607.14	0.2	2084322	2084562	BlankScreen	VGS	85	4	False	lime	600	[1350 1830  405  675]	[ 90 570 405 675]
607.38	1.0	2084562	2085562	ELCue	VGS	85	4	False	lime	600	[1350 1830  405  675]	[ 90 570 405 675]
608.803	2.0	2085985	2088013	ShowFixation	ANTI	86	4	False	red	180	[1035 1515  405  675]	[405 885 405 675]
610.831	0.2	2088013	2088248	BlankScreen	ANTI	86	4	False	red	180	[1035 1515  405  675]	[405 885 405 675]
611.066	1.0	2088248	2089248	ELCue	ANTI	86	4	False	red	180	[1035 1515  405  675]	[405 885 405 675]
612.492	2.0	2089674	2091700	ShowFixation	ANTI	87	4	False	red	40	[1350 1830  405  675]	[ 90 570 405 675]
614.518	0.2	2091700	2091935	BlankScreen	ANTI	87	4	False	red	40	[1350 1830  405  675]	[ 90 570 405 675]
614.753	1.0	2091935	2092935	ELCue	ANTI	87	4	False	red	40	[1350 1830  405  675]	[ 90 570 405 675]
616.179	2.0	2093361	2095387	ShowFixation	VGS	88	4	False	lime	460	[1035 1515  405  675]	[405 885 405 675]
618.205	0.2	2095387	2095622	BlankScreen	VGS	88	4	False	lime	460	[1035 1515  405  675]	[405 885 405 675]
618.44	1.0	2095622	2096622	ELCue	VGS	88	4	False	lime	460	[1035 1515  405  675]	[405 885 405 675]
619.868	2.0	2097050	2099074	ShowFixation	VGS	89	4	False	lime	600	[1350 1830  405  675]	[ 90 570 405 675]
621.892	0.2	2099074	2099309	BlankScreen	VGS	89	4	False	lime	600	[1350 1830  405  675]	[ 90 570 405 675]
622.127	1.0	2099309	2100309	ELCue	VGS	89	4	False	lime	600	[1350 1830  405  675]	[ 90 570 405 675]
623.553	6.0	2100735	2106761	ShowFixation	VGS	90	4	False	lime	600	[1350 1830  405  675]	[ 90 570 405 675]
629.579	0.2	2106761	2107000	BlankScreen	VGS	90	4	False	lime	600	[1350 1830  405  675]	[ 90 570 405 675]
629.818	1.0	2107000	2108000	ELCue	VGS	90	4	False	lime	600	[1350 1830  405  675]	[ 90 570 405 675]
631.241	6.0	2108423	2114452	ShowFixation	VGS	91	4	False	lime	40	[ 90 570 405 675]	[1350 1830  405  675]
637.27	0.2	2114452	2114691	BlankScreen	VGS	91	4	False	lime	40	[ 90 570 405 675]	[1350 1830  405  675]
637.509	1.0	2114691	2115691	ELCue	VGS	91	4	False	lime	40	[ 90 570 405 675]	[1350 1830  405  675]
638.935	2.0	2116117	2118143	ShowFixation	VGS	92	4	False	lime	40	[ 90 570 405 675]	[1350 1830  405  675]
640.962	0.2	2118144	2118378	BlankScreen	VGS	92	4	False	lime	40	[ 90 570 405 675]	[1350 1830  405  675]
641.196	1.0	2118378	2119378	ELCue	VGS	92	4	False	lime	40	[ 90 570 405 675]	[1350 1830  405  675]
642.622	6.0	2119804	2125830	ShowFixation	ANTI	93	4	False	red	460	[405 885 405 675]	[1035 1515  405  675]
648.649	0.2	2125831	2126070	BlankScreen	ANTI	93	4	False	red	460	[405 885 405 675]	[1035 1515  405  675]
648.888	1.0	2126070	2127070	ELCue	ANTI	93	4	False	red	460	[405 885 405 675]	[1035 1515  405  675]
650.312	2.0	2127494	2129522	ShowFixation	ANTI	94	4	False	red	180	[1035 1515  405  675]	[405 885 405 675]
652.34	0.2	2129522	2129757	BlankScreen	ANTI	94	4	False	red	180	[1035 1515  405  675]	[405 885 405 675]
652.575	1.0	2129757	2130757	ELCue	ANTI	94	4	False	red	180	[1035 1515  405  675]	[405 885 405 675]
653.994	6.0	2131176	2137209	ShowFixation	VGS	95	4	False	lime	180	[405 885 405 675]	[1035 1515  405  675]
660.027	0.2	2137209	2137448	BlankScreen	VGS	95	4	False	lime	180	[405 885 405 675]	[1035 1515  405  675]
660.266	1.0	2137448	2138448	ELCue	VGS	95	4	False	lime	180	[405 885 405 675]	[1035 1515  405  675]
661.684	6.0	2138866	2144900	ShowFixation	ANTI	96	4	False	red	180	[1035 1515  405  675]	[405 885 405 675]
667.718	0.2	2144900	2145139	BlankScreen	ANTI	96	4	False	red	180	[1035 1515  405  675]	[405 885 405 675]
667.957	1.0	2145139	2146139	ELCue	ANTI	96	4	False	red	180	[1035 1515  405  675]	[405 885 405 675]
669.376	6.0	2146558	2152590	ShowFixation	ANTI	97	4	False	red	460	[405 885 405 675]	[1035 1515  405  675]
675.408	0.2	2152590	2152830	BlankScreen	ANTI	97	4	False	red	460	[405 885 405 675]	[1035 1515  405  675]
675.648	1.0	2152830	2153830	ELCue	ANTI	97	4	False	red	460	[405 885 405 675]	[1035 1515  405  675]
677.069	2.0	2154251	2156281	ShowFixation	ANTI	98	4	False	red	40	[1350 1830  405  675]	[ 90 570 405 675]
679.099	0.2	2156281	2156517	BlankScreen	ANTI	98	4	False	red	40	[1350 1830  405  675]	[ 90 570 405 675]
679.335	1.0	2156517	2157517	ELCue	ANTI	98	4	False	red	40	[1350 1830  405  675]	[ 90 570 405 675]
680.758	6.0	2157940	2163968	ShowFixation	VGS	99	4	False	lime	40	[ 90 570 405 675]	[1350 1830  405  675]
686.786	0.2	2163968	2164208	BlankScreen	VGS	99	4	False	lime	40	[ 90 570 405 675]	[1350 1830  405  675]
687.026	1.0	2164208	2165208	ELCue	VGS	99	4	False	lime	40	[ 90 570 405 675]	[1350 1830  405  675]
688.444	2.0	2165626	2167659	ShowFixation	ANTI	100	4	False	red	600	[ 90 570 405 675]	[1350 1830  405  675]
690.477	0.2	2167659	2167895	BlankScreen	ANTI	100	4	False	red	600	[ 90 570 405 675]	[1350 1830  405  675]
690.713	1.0	2167895	2168895	ELCue	ANTI	100	4	False	red	600	[ 90 570 405 675]	[1350 1830  405  675]
692.136	6.0	2169318	2175346	ShowFixation	VGS	101	4	False	lime	180	[405 885 405 675]	[1035 1515  405  675]
698.164	0.2	2175346	2175585	BlankScreen	VGS	101	4	False	lime	180	[405 885 405 675]	[1035 1515  405  675]
698.403	1.0	2175585	2176585	ELCue	VGS	101	4	False	lime	180	[405 885 405 675]	[1035 1515  405  675]
699.826	6.0	2177008	2183037	ShowFixation	ANTI	102	4	False	red	600	[ 90 570 405 675]	[1350 1830  405  675]
705.855	0.2	2183037	2183276	BlankScreen	ANTI	102	4	False	red	600	[ 90 570 405 675]	[1350 1830  405  675]
706.094	1.0	2183276	2184276	ELCue	ANTI	102	4	False	red	600	[ 90 570 405 675]	[1350 1830  405  675]
707.513	6.0	2184695	2190728	ShowFixation	ANTI	103	4	False	red	180	[1035 1515  405  675]	[405 885 405 675]
713.546	0.2	2190728	2190967	BlankScreen	ANTI	103	4	False	red	180	[1035 1515  405  675]	[405 885 405 675]
713.785	1.0	2190967	2191967	ELCue	ANTI	103	4	False	red	180	[1035 1515  405  675]	[405 885 405 675]
715.211	2.0	2192393	2194419	ShowFixation	VGS	104	4	False	lime	180	[405 885 405 675]	[1035 1515  405  675]
717.237	0.2	2194419	2194654	BlankScreen	VGS	104	4	False	lime	180	[405 885 405 675]	[1035 1515  405  675]
717.472	1.0	2194654	2195654	ELCue	VGS	104	4	False	lime	180	[405 885 405 675]	[1035 1515  405  675]
718.896	6.0	2196078	2202106	ShowFixation	ANTI	105	4	False	red	600	[ 90 570 405 675]	[1350 1830  405  675]
724.924	0.2	2202106	2202345	BlankScreen	ANTI	105	4	False	red	600	[ 90 570 405 675]	[1350 1830  405  675]
725.163	1.0	2202345	2203345	ELCue	ANTI	105	4	False	red	600	[ 90 570 405 675]	[1350 1830  405  675]
726.588	2.0	2203770	2205797	ShowFixation	ANTI	106	4	False	red	460	[405 885 405 675]	[1035 1515  405  675]
728.615	0.2	2205797	2206032	BlankScreen	ANTI	106	4	False	red	460	[405 885 405 675]	[1035 1515  405  675]
728.85	1.0	2206032	2207032	ELCue	ANTI	106	4	False	red	460	[405 885 405 675]	[1035 1515  405  675]
730.276	6.0	2207458	2213484	ShowFixation	VGS	107	4	False	lime	460	[1035 1515  405  675]	[405 885 405 675]
736.302	0.2	2213484	2213723	BlankScreen	VGS	107	4	False	lime	460	[1035 1515  405  675]	[405 885 405 675]
736.541	1.0	2213723	2214723	ELCue	VGS	107	4	False	lime	460	[1035 1515  405  675]	[405 885 405 675]
737.966	2.0	2215148	2217175	ShowFixation	ANTI	108	4	False	red	460	[405 885 405 675]	[1035 1515  405  675]
739.993	0.2	2217175	2217410	BlankScreen	ANTI	108	4	False	red	460	[405 885 405 675]	[1035 1515  405  675]
740.228	1.0	2217410	2218410	ELCue	ANTI	108	4	False	red	460	[405 885 405 675]	[1035 1515  405  675]
741.652	2.0	2218834	2220862	ShowFixation	ANTI	109	4	False	red	600	[ 90 570 405 675]	[1350 1830  405  675]
743.68	0.2	2220862	2221097	BlankScreen	ANTI	109	4	False	red	600	[ 90 570 405 675]	[1350 1830  405  675]
743.915	1.0	2221097	2222097	ELCue	ANTI	109	4	False	red	600	[ 90 570 405 675]	[1350 1830  405  675]
745.338	2.0	2222520	2224549	ShowFixation	VGS	110	4	False	lime	460	[1035 1515  405  675]	[405 885 405 675]
747.367	0.2	2224549	2224784	BlankScreen	VGS	110	4	False	lime	460	[1035 1515  405  675]	[405 885 405 675]
747.602	1.0	2224784	2225784	ELCue	VGS	110	4	False	lime	460	[1035 1515  405  675]	[405 885 405 675]
749.026	2.0	2226208	2228236	ShowFixation	VGS	111	4	False	lime	40	[ 90 570 405 675]	[1350 1830  405  675]
751.054	0.2	2228236	2228472	BlankScreen	VGS	111	4	False	lime	40	[ 90 570 405 675]	[1350 1830  405  675]
751.29	1.0	2228472	2229472	ELCue	VGS	111	4	False	lime	40	[ 90 570 405 675]	[1350 1830  405  675]
752.71	2.0	2229892	2231923	ShowFixation	VGS	112	4	False	lime	600	[1350 1830  405  675]	[ 90 570 405 675]
754.741	0.2	2231923	2232158	BlankScreen	VGS	112	4	False	lime	600	[1350 1830  405  675]	[ 90 570 405 675]
754.976	1.0	2232158	2233158	ELCue	VGS	112	4	False	lime	600	[1350 1830  405  675]	[ 90 570 405 675]
