onset	duration	startTime	stopTime	eventIdentifier	trial_type	trial_number	block_number	is_practice	fixation_color	cue_side	aoi_correct	aoi_incorrect
0.15	6.0	2184548	2190578	ShowFixation	VGS	1	1	True	lime	460	[1035 1515  405  675]	[405 885 405 675]
6.18	0.2	2190578	2190817	BlankScreen	VGS	1	1	True	lime	460	[1035 1515  405  675]	[405 885 405 675]
6.419	1.0	2190817	2191858	ELCue	VGS	1	1	True	lime	460	[1035 1515  405  675]	[405 885 405 675]
7.875	2.0	2192273	2194886	ShowFixation	VGS	2	1	True	lime	460	[1035 1515  405  675]	[405 885 405 675]
10.488	0.2	2194886	2195105	BlankScreen	VGS	2	1	True	lime	460	[1035 1515  405  675]	[405 885 405 675]
10.707	1.0	2195105	2196129	ELCue	VGS	2	1	True	lime	460	[1035 1515  405  675]	[405 885 405 675]
12.149	6.0	2196547	2203174	ShowFixation	ANTI	3	1	True	red	40	[1350 1830  405  675]	[ 90 570 405 675]
18.776	0.2	2203174	2203413	BlankScreen	ANTI	3	1	True	red	40	[1350 1830  405  675]	[ 90 570 405 675]
19.015	1.0	2203413	2204454	ELCue	ANTI	3	1	True	red	40	[1350 1830  405  675]	[ 90 570 405 675]
20.472	2.0	2204870	2207482	ShowFixation	VGS	4	1	True	lime	600	[1350 1830  405  675]	[ 90 570 405 675]
23.084	0.2	2207482	2207701	BlankScreen	VGS	4	1	True	lime	600	[1350 1830  405  675]	[ 90 570 405 675]
23.303	1.0	2207701	2208724	ELCue	VGS	4	1	True	lime	600	[1350 1830  405  675]	[ 90 570 405 675]
24.744	2.0	2209142	2211769	ShowFixation	ANTI	5	1	True	red	40	[1350 1830  405  675]	[ 90 570 405 675]
27.371	0.2	2211769	2212005	BlankScreen	ANTI	5	1	True	red	40	[1350 1830  405  675]	[ 90 570 405 675]
27.607	1.0	2212005	2213046	ELCue	ANTI	5	1	True	red	40	[1350 1830  405  675]	[ 90 570 405 675]
29.068	2.0	2213466	2216090	ShowFixation	ANTI	6	1	True	red	180	[1035 1515  405  675]	[405 885 405 675]
31.692	0.2	2216090	2216326	BlankScreen	ANTI	6	1	True	red	180	[1035 1515  405  675]	[405 885 405 675]
31.928	1.0	2216326	2217367	ELCue	ANTI	6	1	True	red	180	[1035 1515  405  675]	[405 885 405 675]
33.389	6.0	2217787	2224411	ShowFixation	ANTI	7	1	True	red	460	[405 885 405 675]	[1035 1515  405  675]
40.013	0.2	2224411	2224651	BlankScreen	ANTI	7	1	True	red	460	[405 885 405 675]	[1035 1515  405  675]
40.253	1.0	2224651	2225691	ELCue	ANTI	7	1	True	red	460	[405 885 405 675]	[1035 1515  405  675]
41.714	6.0	2226112	2232720	ShowFixation	VGS	8	1	True	lime	600	[1350 1830  405  675]	[ 90 570 405 675]
48.322	0.2	2232720	2232959	BlankScreen	VGS	8	1	True	lime	600	[1350 1830  405  675]	[ 90 570 405 675]
48.561	1.0	2232959	2234000	ELCue	VGS	8	1	True	lime	600	[1350 1830  405  675]	[ 90 570 405 675]
49.998	6.0	2234396	2241044	ShowFixation	ANTI	9	1	True	red	180	[1035 1515  405  675]	[405 885 405 675]
56.646	0.2	2241044	2241284	BlankScreen	ANTI	9	1	True	red	180	[1035 1515  405  675]	[405 885 405 675]
56.886	1.0	2241284	2242324	ELCue	ANTI	9	1	True	red	180	[1035 1515  405  675]	[405 885 405 675]
58.341	2.0	2242739	2245353	ShowFixation	VGS	10	1	True	lime	180	[405 885 405 675]	[1035 1515  405  675]
60.955	0.2	2245353	2245571	BlankScreen	VGS	10	1	True	lime	180	[405 885 405 675]	[1035 1515  405  675]
61.173	1.0	2245571	2246593	ELCue	VGS	10	1	True	lime	180	[405 885 405 675]	[1035 1515  405  675]
62.598	2.0	2246996	2249623	ShowFixation	ANTI	11	1	True	red	600	[ 90 570 405 675]	[1350 1830  405  675]
65.225	0.2	2249623	2249859	BlankScreen	ANTI	11	1	True	red	600	[ 90 570 405 675]	[1350 1830  405  675]
65.461	1.0	2249859	2250900	ELCue	ANTI	11	1	True	red	600	[ 90 570 405 675]	[1350 1830  405  675]
66.923	2.0	2251321	2253944	ShowFixation	VGS	12	1	True	lime	40	[ 90 570 405 675]	[1350 1830  405  675]
69.546	0.2	2253944	2254180	BlankScreen	VGS	12	1	True	lime	40	[ 90 570 405 675]	[1350 1830  405  675]
69.783	1.0	2254181	2255221	ELCue	VGS	12	1	True	lime	40	[ 90 570 405 675]	[1350 1830  405  675]
71.242	6.0	2255640	2262265	ShowFixation	VGS	13	1	True	lime	180	[405 885 405 675]	[1035 1515  405  675]
77.867	0.2	2262265	2262505	BlankScreen	VGS	13	1	True	lime	180	[405 885 405 675]	[1035 1515  405  675]
78.107	1.0	2262505	2263545	ELCue	VGS	13	1	True	lime	180	[405 885 405 675]	[1035 1515  405  675]
79.57	6.0	2263968	2270573	ShowFixation	ANTI	14	1	True	red	600	[ 90 570 405 675]	[1350 1830  405  675]
86.175	0.2	2270573	2270814	BlankScreen	ANTI	14	1	True	red	600	[ 90 570 405 675]	[1350 1830  405  675]
86.416	1.0	2270814	2271854	ELCue	ANTI	14	1	True	red	600	[ 90 570 405 675]	[1350 1830  405  675]
87.876	6.0	2272274	2278883	ShowFixation	VGS	15	1	True	lime	40	[ 90 570 405 675]	[1350 1830  405  675]
94.485	0.2	2278883	2279122	BlankScreen	VGS	15	1	True	lime	40	[ 90 570 405 675]	[1350 1830  405  675]
94.724	1.0	2279122	2280162	ELCue	VGS	15	1	True	lime	40	[ 90 570 405 675]	[1350 1830  405  675]
96.186	2.0	2280584	2283208	ShowFixation	ANTI	16	1	True	red	460	[405 885 405 675]	[1035 1515  405  675]
98.81	0.2	2283208	2283443	BlankScreen	ANTI	16	1	True	red	460	[405 885 405 675]	[1035 1515  405  675]
99.045	1.0	2283443	2284483	ELCue	ANTI	16	1	True	red	460	[405 885 405 675]	[1035 1515  405  675]
112.814	2.0	2297212	2299240	ShowFixation	VGS	17	2	False	lime	600	[1350 1830  405  675]	[ 90 570 405 675]
114.842	0.2	2299240	2299475	BlankScreen	VGS	17	2	False	lime	600	[1350 1830  405  675]	[ 90 570 405 675]
115.077	1.0	2299475	2300475	ELCue	VGS	17	2	False	lime	600	[1350 1830  405  675]	[ 90 570 405 675]
116.482	2.0	2300880	2302910	ShowFixation	ANTI	18	2	False	red	460	[405 885 405 675]	[1035 1515  405  675]
118.512	0.2	2302910	2303146	BlankScreen	ANTI	18	2	False	red	460	[405 885 405 675]	[1035 1515  405  675]
118.748	1.0	2303146	2304146	ELCue	ANTI	18	2	False	red	460	[405 885 405 675]	[1035 1515  405  675]
120.17	2.0	2304568	2306597	ShowFixation	ANTI	19	2	False	red	460	[405 885 405 675]	[1035 1515  405  675]
122.199	0.2	2306597	2306833	BlankScreen	ANTI	19	2	False	red	460	[405 885 405 675]	[1035 1515  405  675]
122.435	1.0	2306833	2307833	ELCue	ANTI	19	2	False	red	460	[405 885 405 675]	[1035 1515  405  675]
123.86	6.0	2308258	2314284	ShowFixation	VGS	20	2	False	lime	600	[1350 1830  405  675]	[ 90 570 405 675]
129.886	0.2	2314284	2314524	BlankScreen	VGS	20	2	False	lime	600	[1350 1830  405  675]	[ 90 570 405 675]
130.126	1.0	2314524	2315524	ELCue	VGS	20	2	False	lime	600	[1350 1830  405  675]	[ 90 570 405 675]
131.544	6.0	2315942	2321975	ShowFixation	VGS	21	2	False	lime	180	[405 885 405 675]	[1035 1515  405  675]
137.577	0.2	2321975	2322214	BlankScreen	VGS	21	2	False	lime	180	[405 885 405 675]	[1035 1515  405  675]
137.816	1.0	2322214	2323214	ELCue	VGS	21	2	False	lime	180	[405 885 405 675]	[1035 1515  405  675]
139.218	2.0	2323616	2325649	ShowFixation	ANTI	22	2	False	red	40	[1350 1830  405  675]	[ 90 570 405 675]
141.251	0.2	2325649	2325885	BlankScreen	ANTI	22	2	False	red	40	[1350 1830  405  675]	[ 90 570 405 675]
141.487	1.0	2325885	2326885	ELCue	ANTI	22	2	False	red	40	[1350 1830  405  675]	[ 90 570 405 675]
142.904	2.0	2327302	2329336	ShowFixation	VGS	23	2	False	lime	40	[ 90 570 405 675]	[1350 1830  405  675]
144.938	0.2	2329336	2329572	BlankScreen	VGS	23	2	False	lime	40	[ 90 570 405 675]	[1350 1830  405  675]
145.174	1.0	2329572	2330572	ELCue	VGS	23	2	False	lime	40	[ 90 570 405 675]	[1350 1830  405  675]
146.591	2.0	2330989	2333023	ShowFixation	VGS	24	2	False	lime	40	[ 90 570 405 675]	[1350 1830  405  675]
148.625	0.2	2333023	2333259	BlankScreen	VGS	24	2	False	lime	40	[ 90 570 405 675]	[1350 1830  405  675]
148.861	1.0	2333259	2334259	ELCue	VGS	24	2	False	lime	40	[ 90 570 405 675]	[1350 1830  405  675]
150.281	2.0	2334679	2336710	ShowFixation	VGS	25	2	False	lime	180	[405 885 405 675]	[1035 1515  405  675]
152.312	0.2	2336710	2336946	BlankScreen	VGS	25	2	False	lime	180	[405 885 405 675]	[1035 1515  405  675]
152.548	1.0	2336946	2337946	ELCue	VGS	25	2	False	lime	180	[405 885 405 675]	[1035 1515  405  675]
153.969	6.0	2338367	2344397	ShowFixation	ANTI	26	2	False	red	460	[405 885 405 675]	[1035 1515  405  675]
160.0	0.2	2344398	2344637	BlankScreen	ANTI	26	2	False	red	460	[405 885 405 675]	[1035 1515  405  675]
160.239	1.0	2344637	2345637	ELCue	ANTI	26	2	False	red	460	[405 885 405 675]	[1035 1515  405  675]
161.659	6.0	2346057	2352088	ShowFixation	VGS	27	2	False	lime	460	[1035 1515  405  675]	[405 885 405 675]
167.69	0.2	2352088	2352327	BlankScreen	VGS	27	2	False	lime	460	[1035 1515  405  675]	[405 885 405 675]
167.929	1.0	2352327	2353327	ELCue	VGS	27	2	False	lime	460	[1035 1515  405  675]	[405 885 405 675]
169.35	2.0	2353748	2355779	ShowFixation	ANTI	28	2	False	red	600	[ 90 570 405 675]	[1350 1830  405  675]
171.381	0.2	2355779	2356014	BlankScreen	ANTI	28	2	False	red	600	[ 90 570 405 675]	[1350 1830  405  675]
171.616	1.0	2356014	2357014	ELCue	ANTI	28	2	False	red	600	[ 90 570 405 675]	[1350 1830  405  675]
173.036	2.0	2357434	2359466	ShowFixation	ANTI	29	2	False	red	180	[1035 1515  405  675]	[405 885 405 675]
175.068	0.2	2359466	2359701	BlankScreen	ANTI	29	2	False	red	180	[1035 1515  405  675]	[405 885 405 675]
175.303	1.0	2359701	2360701	ELCue	ANTI	29	2	False	red	180	[1035 1515  405  675]	[405 885 405 675]
176.728	2.0	2361126	2363153	ShowFixation	VGS	30	2	False	lime	600	[1350 1830  405  675]	[ 90 570 405 675]
178.755	0.2	2363153	2363388	BlankScreen	VGS	30	2	False	lime	600	[1350 1830  405  675]	[ 90 570 405 675]
178.99	1.0	2363388	2364388	ELCue	VGS	30	2	False	lime	600	[1350 1830  405  675]	[ 90 570 405 675]
180.409	2.0	2364807	2366840	ShowFixation	ANTI	31	2	False	red	40	[1350 1830  405  675]	[ 90 570 405 675]
182.442	0.2	2366840	2367075	BlankScreen	ANTI	31	2	False	red	40	[1350 1830  405  675]	[ 90 570 405 675]
182.677	1.0	2367075	2368075	ELCue	ANTI	31	2	False	red	40	[1350 1830  405  675]	[ 90 570 405 675]
184.099	2.0	2368497	2370527	ShowFixation	VGS	32	2	False	lime	460	[1035 1515  405  675]	[405 885 405 675]
186.129	0.2	2370527	2370762	BlankScreen	VGS	32	2	False	lime	460	[1035 1515  405  675]	[405 885 405 675]
186.364	1.0	2370762	2371762	ELCue	VGS	32	2	False	lime	460	[1035 1515  405  675]	[405 885 405 675]
187.786	6.0	2372184	2378214	ShowFixation	VGS	33	2	False	lime	40	[ 90 570 405 675]	[1350 1830  405  675]
193.816	0.2	2378214	2378453	BlankScreen	VGS	33	2	False	lime	40	[ 90 570 405 675]	[1350 1830  405  675]
194.055	1.0	2378453	2379453	ELCue	VGS	33	2	False	lime	40	[ 90 570 405 675]	[1350 1830  405  675]
195.48	6.0	2379878	2385905	ShowFixation	ANTI	34	2	False	red	40	[1350 1830  405  675]	[ 90 570 405 675]
201.507	0.2	2385905	2386144	BlankScreen	ANTI	34	2	False	red	40	[1350 1830  405  675]	[ 90 570 405 675]
201.746	1.0	2386144	2387144	ELCue	ANTI	34	2	False	red	40	[1350 1830  405  675]	[ 90 570 405 675]
203.168	6.0	2387566	2393596	ShowFixation	ANTI	35	2	False	red	460	[405 885 405 675]	[1035 1515  405  675]
209.198	0.2	2393596	2393836	BlankScreen	ANTI	35	2	False	red	460	[405 885 405 675]	[1035 1515  405  675]
209.438	1.0	2393836	2394836	ELCue	ANTI	35	2	False	red	460	[405 885 405 675]	[1035 1515  405  675]
210.859	6.0	2395257	2401288	ShowFixation	ANTI	36	2	False	red	600	[ 90 570 405 675]	[1350 1830  405  675]
216.89	0.2	2401288	2401526	BlankScreen	ANTI	36	2	False	red	600	[ 90 570 405 675]	[1350 1830  405  675]
217.129	1.0	2401527	2402527	ELCue	ANTI	36	2	False	red	600	[ 90 570 405 675]	[1350 1830  405  675]
218.546	6.0	2402944	2408979	ShowFixation	VGS	37	2	False	lime	460	[1035 1515  405  675]	[405 885 405 675]
224.581	0.2	2408979	2409218	BlankScreen	VGS	37	2	False	lime	460	[1035 1515  405  675]	[405 885 405 675]
224.82	1.0	2409218	2410218	ELCue	VGS	37	2	False	lime	460	[1035 1515  405  675]	[405 885 405 675]
226.241	6.0	2410639	2416670	ShowFixation	VGS	38	2	False	lime	180	[405 885 405 675]	[1035 1515  405  675]
232.272	0.2	2416670	2416909	BlankScreen	VGS	38	2	False	lime	180	[405 885 405 675]	[1035 1515  405  675]
232.511	1.0	2416909	2417909	ELCue	VGS	38	2	False	lime	180	[405 885 405 675]	[1035 1515  405  675]
233.93	6.0	2418328	2424361	ShowFixation	VGS	39	2	False	lime	600	[1350 1830  405  675]	[ 90 570 405 675]
239.963	0.2	2424361	2424600	BlankScreen	VGS	39	2	False	lime	600	[1350 1830  405  675]	[ 90 570 405 675]
240.202	1.0	2424600	2425600	ELCue	VGS	39	2	False	lime	600	[1350 1830  405  675]	[ 90 570 405 675]
241.624	6.0	2426022	2432051	ShowFixation	ANTI	40	2	False	red	600	[ 90 570 405 675]	[1350 1830  405  675]
247.653	0.2	2432051	2432291	BlankScreen	ANTI	40	2	False	red	600	[ 90 570 405 675]	[1350 1830  405  675]
247.893	1.0	2432291	2433291	ELCue	ANTI	40	2	False	red	600	[ 90 570 405 675]	[1350 1830  405  675]
249.311	2.0	2433709	2435742	ShowFixation	VGS	41	2	False	lime	460	[1035 1515  405  675]	[405 885 405 675]
251.344	0.2	2435742	2435978	BlankScreen	VGS	41	2	False	lime	460	[1035 1515  405  675]	[405 885 405 675]
251.58	1.0	2435978	2436978	ELCue	VGS	41	2	False	lime	460	[1035 1515  405  675]	[405 885 405 675]
253.002	6.0	2437400	2443429	ShowFixation	ANTI	42	2	False	red	40	[1350 1830  405  675]	[ 90 570 405 675]
259.031	0.2	2443429	2443669	BlankScreen	ANTI	42	2	False	red	40	[1350 1830  405  675]	[ 90 570 405 675]
259.271	1.0	2443669	2444669	ELCue	ANTI	42	2	False	red	40	[1350 1830  405  675]	[ 90 570 405 675]
260.693	6.0	2445091	2451120	ShowFixation	ANTI	43	2	False	red	180	[1035 1515  405  675]	[405 885 405 675]
266.722	0.2	2451120	2451360	BlankScreen	ANTI	43	2	False	red	180	[1035 1515  405  675]	[405 885 405 675]
266.962	1.0	2451360	2452360	ELCue	ANTI	43	2	False	red	180	[1035 1515  405  675]	[405 885 405 675]
268.381	2.0	2452779	2454811	ShowFixation	VGS	44	2	False	lime	180	[405 885 405 675]	[1035 1515  405  675]
270.413	0.2	2454811	2455046	BlankScreen	VGS	44	2	False	lime	180	[405 885 405 675]	[1035 1515  405  675]
270.648	1.0	2455046	2456046	ELCue	VGS	44	2	False	lime	180	[405 885 405 675]	[1035 1515  405  675]
272.064	2.0	2456462	2458498	ShowFixation	ANTI	45	2	False	red	600	[ 90 570 405 675]	[1350 1830  405  675]
274.1	0.2	2458498	2458733	BlankScreen	ANTI	45	2	False	red	600	[ 90 570 405 675]	[1350 1830  405  675]
274.335	1.0	2458733	2459733	ELCue	ANTI	45	2	False	red	600	[ 90 570 405 675]	[1350 1830  405  675]
275.757	6.0	2460155	2466185	ShowFixation	ANTI	46	2	False	red	180	[1035 1515  405  675]	[405 885 405 675]
281.787	0.2	2466185	2466424	BlankScreen	ANTI	46	2	False	red	180	[1035 1515  405  675]	[405 885 405 675]
282.026	1.0	2466424	2467424	ELCue	ANTI	46	2	False	red	180	[1035 1515  405  675]	[405 885 405 675]
283.443	2.0	2467841	2469876	ShowFixation	ANTI	47	2	False	red	180	[1035 1515  405  675]	[405 885 405 675]
285.478	0.2	2469876	2470111	BlankScreen	ANTI	47	2	False	red	180	[1035 1515  405  675]	[405 885 405 675]
285.713	1.0	2470111	2471111	ELCue	ANTI	47	2	False	red	180	[1035 1515  405  675]	[405 885 405 675]
287.351	6.0	2471749	2477780	ShowFixation	VGS	48	2	False	lime	40	[ 90 570 405 675]	[1350 1830  405  675]
293.382	0.2	2477780	2478019	BlankScreen	VGS	48	2	False	lime	40	[ 90 570 405 675]	[1350 1830  405  675]
293.621	1.0	2478019	2479019	ELCue	VGS	48	2	False	lime	40	[ 90 570 405 675]	[1350 1830  405  675]
315.681	2.0	2500079	2502108	ShowFixation	ANTI	49	3	False	red	180	[1035 1515  405  675]	[405 885 405 675]
317.71	0.2	2502108	2502343	BlankScreen	ANTI	49	3	False	red	180	[1035 1515  405  675]	[405 885 405 675]
317.945	1.0	2502343	2503343	ELCue	ANTI	49	3	False	red	180	[1035 1515  405  675]	[405 885 405 675]
319.372	2.0	2503770	2505795	ShowFixation	VGS	50	3	False	lime	180	[405 885 405 675]	[1035 1515  405  675]
321.397	0.2	2505795	2506030	BlankScreen	VGS	50	3	False	lime	180	[405 885 405 675]	[1035 1515  405  675]
321.632	1.0	2506030	2507030	ELCue	VGS	50	3	False	lime	180	[405 885 405 675]	[1035 1515  405  675]
323.056	6.0	2507454	2513482	ShowFixation	ANTI	51	3	False	red	40	[1350 1830  405  675]	[ 90 570 405 675]
329.084	0.2	2513482	2513721	BlankScreen	ANTI	51	3	False	red	40	[1350 1830  405  675]	[ 90 570 405 675]
329.323	1.0	2513721	2514721	ELCue	ANTI	51	3	False	red	40	[1350 1830  405  675]	[ 90 570 405 675]
330.745	2.0	2515143	2517173	ShowFixation	ANTI	52	3	False	red	600	[ 90 570 405 675]	[1350 1830  405  675]
332.775	0.2	2517173	2517409	BlankScreen	ANTI	52	3	False	red	600	[ 90 570 405 675]	[1350 1830  405  675]
333.011	1.0	2517409	2518409	ELCue	ANTI	52	3	False	red	600	[ 90 570 405 675]	[1350 1830  405  675]
334.435	6.0	2518833	2524860	ShowFixation	VGS	53	3	False	lime	180	[405 885 405 675]	[1035 1515  405  675]
340.462	0.2	2524860	2525099	BlankScreen	VGS	53	3	False	lime	180	[405 885 405 675]	[1035 1515  405  675]
340.701	1.0	2525099	2526099	ELCue	VGS	53	3	False	lime	180	[405 885 405 675]	[1035 1515  405  675]
342.125	6.0	2526523	2532551	ShowFixation	ANTI	54	3	False	red	40	[1350 1830  405  675]	[ 90 570 405 675]
348.153	0.2	2532551	2532790	BlankScreen	ANTI	54	3	False	red	40	[1350 1830  405  675]	[ 90 570 405 675]
348.393	1.0	2532791	2533791	ELCue	ANTI	54	3	False	red	40	[1350 1830  405  675]	[ 90 570 405 675]
349.816	2.0	2534214	2536241	ShowFixation	VGS	55	3	False	lime	460	[1035 1515  405  675]	[405 885 405 675]
351.843	0.2	2536241	2536477	BlankScreen	VGS	55	3	False	lime	460	[1035 1515  405  675]	[405 885 405 675]
352.079	1.0	2536477	2537477	ELCue	VGS	55	3	False	lime	460	[1035 1515  405  675]	[405 885 405 675]
353.5	6.0	2537898	2543929	ShowFixation	VGS	56	3	False	lime	40	[ 90 570 405 675]	[1350 1830  405  675]
359.531	0.2	2543929	2544169	BlankScreen	VGS	56	3	False	lime	40	[ 90 570 405 675]	[1350 1830  405  675]
359.771	1.0	2544169	2545169	ELCue	VGS	56	3	False	lime	40	[ 90 570 405 675]	[1350 1830  405  675]
361.193	2.0	2545591	2547619	ShowFixation	ANTI	57	3	False	red	460	[405 885 405 675]	[1035 1515  405  675]
363.222	0.2	2547620	2547856	BlankScreen	ANTI	57	3	False	red	460	[405 885 405 675]	[1035 1515  405  675]
363.458	1.0	2547856	2548856	ELCue	ANTI	57	3	False	red	460	[405 885 405 675]	[1035 1515  405  675]
364.88	6.0	2549278	2555307	ShowFixation	VGS	58	3	False	lime	460	[1035 1515  405  675]	[405 885 405 675]
370.909	0.2	2555307	2555547	BlankScreen	VGS	58	3	False	lime	460	[1035 1515  405  675]	[405 885 405 675]
371.149	1.0	2555547	2556547	ELCue	VGS	58	3	False	lime	460	[1035 1515  405  675]	[405 885 405 675]
372.573	6.0	2556971	2562998	ShowFixation	ANTI	59	3	False	red	600	[ 90 570 405 675]	[1350 1830  405  675]
378.6	0.2	2562998	2563238	BlankScreen	ANTI	59	3	False	red	600	[ 90 570 405 675]	[1350 1830  405  675]
378.84	1.0	2563238	2564238	ELCue	ANTI	59	3	False	red	600	[ 90 570 405 675]	[1350 1830  405  675]
380.262	6.0	2564660	2570689	ShowFixation	VGS	60	3	False	lime	600	[1350 1830  405  675]	[ 90 570 405 675]
386.291	0.2	2570689	2570928	BlankScreen	VGS	60	3	False	lime	600	[1350 1830  405  675]	[ 90 570 405 675]
386.53	1.0	2570928	2571928	ELCue	VGS	60	3	False	lime	600	[1350 1830  405  675]	[ 90 570 405 675]
387.955	6.0	2572353	2578380	ShowFixation	ANTI	61	3	False	red	460	[405 885 405 675]	[1035 1515  405  675]
393.982	0.2	2578380	2578619	BlankScreen	ANTI	61	3	False	red	460	[405 885 405 675]	[1035 1515  405  675]
394.221	1.0	2578619	2579619	ELCue	ANTI	61	3	False	red	460	[405 885 405 675]	[1035 1515  405  675]
395.641	2.0	2580039	2582071	ShowFixation	ANTI	62	3	False	red	460	[405 885 405 675]	[1035 1515  405  675]
397.673	0.2	2582071	2582306	BlankScreen	ANTI	62	3	False	red	460	[405 885 405 675]	[1035 1515  405  675]
397.908	1.0	2582306	2583306	ELCue	ANTI	62	3	False	red	460	[405 885 405 675]	[1035 1515  405  675]
399.331	2.0	2583729	2585758	ShowFixation	VGS	63	3	False	lime	600	[1350 1830  405  675]	[ 90 570 405 675]
401.36	0.2	2585758	2585993	BlankScreen	VGS	63	3	False	lime	600	[1350 1830  405  675]	[ 90 570 405 675]
401.595	1.0	2585993	2586993	ELCue	VGS	63	3	False	lime	600	[1350 1830  405  675]	[ 90 570 405 675]
403.018	6.0	2587416	2593445	ShowFixation	VGS	64	3	False	lime	180	[405 885 405 675]	[1035 1515  405  675]
409.047	0.2	2593445	2593684	BlankScreen	VGS	64	3	False	lime	180	[405 885 405 675]	[1035 1515  405  675]
409.286	1.0	2593684	2594684	ELCue	VGS	64	3	False	lime	180	[405 885 405 675]	[1035 1515  405  675]
410.71	2.0	2595108	2597136	ShowFixation	VGS	65	3	False	lime	40	[ 90 570 405 675]	[1350 1830  405  675]
412.738	0.2	2597136	2597371	BlankScreen	VGS	65	3	False	lime	40	[ 90 570 405 675]	[1350 1830  405  675]
412.973	1.0	2597371	2598371	ELCue	VGS	65	3	False	lime	40	[ 90 570 405 675]	[1350 1830  405  675]
414.395	6.0	2598793	2604823	ShowFixation	VGS	66	3	False	lime	40	[ 90 570 405 675]	[1350 1830  405  675]
420.425	0.2	2604823	2605062	BlankScreen	VGS	66	3	False	lime	40	[ 90 570 405 675]	[1350 1830  405  675]
420.664	1.0	2605062	2606062	ELCue	VGS	66	3	False	lime	40	[ 90 570 405 675]	[1350 1830  405  675]
422.084	2.0	2606482	2608514	ShowFixation	VGS	67	3	False	lime	460	[1035 1515  405  675]	[405 885 405 675]
424.116	0.2	2608514	2608749	BlankScreen	VGS	67	3	False	lime	460	[1035 1515  405  675]	[405 885 405 675]
424.351	1.0	2608749	2609749	ELCue	VGS	67	3	False	lime	460	[1035 1515  405  675]	[405 885 405 675]
425.768	6.0	2610166	2616201	ShowFixation	VGS	68	3	False	lime	600	[1350 1830  405  675]	[ 90 570 405 675]
431.803	0.2	2616201	2616440	BlankScreen	VGS	68	3	False	lime	600	[1350 1830  405  675]	[ 90 570 405 675]
432.042	1.0	2616440	2617440	ELCue	VGS	68	3	False	lime	600	[1350 1830  405  675]	[ 90 570 405 675]
433.465	2.0	2617863	2619892	ShowFixation	ANTI	69	3	False	red	600	[ 90 570 405 675]	[1350 1830  405  675]
435.494	0.2	2619892	2620127	BlankScreen	ANTI	69	3	False	red	600	[ 90 570 405 675]	[1350 1830  405  675]
435.729	1.0	2620127	2621127	ELCue	ANTI	69	3	False	red	600	[ 90 570 405 675]	[1350 1830  405  675]
437.144	6.0	2621542	2627579	ShowFixation	ANTI	70	3	False	red	600	[ 90 570 405 675]	[1350 1830  405  675]
443.181	0.2	2627579	2627818	BlankScreen	ANTI	70	3	False	red	600	[ 90 570 405 675]	[1350 1830  405  675]
443.42	1.0	2627818	2628818	ELCue	ANTI	70	3	False	red	600	[ 90 570 405 675]	[1350 1830  405  675]
444.837	6.0	2629235	2635270	ShowFixation	VGS	71	3	False	lime	460	[1035 1515  405  675]	[405 885 405 675]
450.872	0.2	2635270	2635509	BlankScreen	VGS	71	3	False	lime	460	[1035 1515  405  675]	[405 885 405 675]
451.111	1.0	2635509	2636509	ELCue	VGS	71	3	False	lime	460	[1035 1515  405  675]	[405 885 405 675]
452.536	6.0	2636934	2642960	ShowFixation	ANTI	72	3	False	red	460	[405 885 405 675]	[1035 1515  405  675]
458.562	0.2	2642960	2643200	BlankScreen	ANTI	72	3	False	red	460	[405 885 405 675]	[1035 1515  405  675]
458.802	1.0	2643200	2644200	ELCue	ANTI	72	3	False	red	460	[405 885 405 675]	[1035 1515  405  675]
460.228	2.0	2644626	2646651	ShowFixation	VGS	73	3	False	lime	180	[405 885 405 675]	[1035 1515  405  675]
462.253	0.2	2646651	2646887	BlankScreen	VGS	73	3	False	lime	180	[405 885 405 675]	[1035 1515  405  675]
462.489	1.0	2646887	2647887	ELCue	VGS	73	3	False	lime	180	[405 885 405 675]	[1035 1515  405  675]
463.914	2.0	2648312	2650338	ShowFixation	ANTI	74	3	False	red	40	[1350 1830  405  675]	[ 90 570 405 675]
465.94	0.2	2650338	2650574	BlankScreen	ANTI	74	3	False	red	40	[1350 1830  405  675]	[ 90 570 405 675]
466.176	1.0	2650574	2651574	ELCue	ANTI	74	3	False	red	40	[1350 1830  405  675]	[ 90 570 405 675]
467.595	2.0	2651993	2654025	ShowFixation	ANTI	75	3	False	red	40	[1350 1830  405  675]	[ 90 570 405 675]
469.627	0.2	2654025	2654261	BlankScreen	ANTI	75	3	False	red	40	[1350 1830  405  675]	[ 90 570 405 675]
469.863	1.0	2654261	2655261	ELCue	ANTI	75	3	False	red	40	[1350 1830  405  675]	[ 90 570 405 675]
471.287	6.0	2655685	2661712	ShowFixation	ANTI	76	3	False	red	180	[1035 1515  405  675]	[405 885 405 675]
477.314	0.2	2661712	2661952	BlankScreen	ANTI	76	3	False	red	180	[1035 1515  405  675]	[405 885 405 675]
477.554	1.0	2661952	2662952	ELCue	ANTI	76	3	False	red	180	[1035 1515  405  675]	[405 885 405 675]
478.978	2.0	2663376	2665404	ShowFixation	ANTI	77	3	False	red	180	[1035 1515  405  675]	[405 885 405 675]
481.006	0.2	2665404	2665639	BlankScreen	ANTI	77	3	False	red	180	[1035 1515  405  675]	[405 885 405 675]
481.241	1.0	2665639	2666639	ELCue	ANTI	77	3	False	red	180	[1035 1515  405  675]	[405 885 405 675]
482.664	6.0	2667062	2673091	ShowFixation	ANTI	78	3	False	red	180	[1035 1515  405  675]	[405 885 405 675]
488.693	0.2	2673091	2673329	BlankScreen	ANTI	78	3	False	red	180	[1035 1515  405  675]	[405 885 405 675]
488.931	1.0	2673329	2674329	ELCue	ANTI	78	3	False	red	180	[1035 1515  405  675]	[405 885 405 675]
490.354	2.0	2674752	2676781	ShowFixation	VGS	79	3	False	lime	40	[ 90 570 405 675]	[1350 1830  405  675]
492.384	0.2	2676782	2677016	BlankScreen	VGS	79	3	False	lime	40	[ 90 570 405 675]	[1350 1830  405  675]
492.619	1.0	2677017	2678017	ELCue	VGS	79	3	False	lime	40	[ 90 570 405 675]	[1350 1830  405  675]
494.041	2.0	2678439	2680469	ShowFixation	VGS	80	3	False	lime	600	[1350 1830  405  675]	[ 90 570 405 675]
496.071	0.2	2680469	2680703	BlankScreen	VGS	80	3	False	lime	600	[1350 1830  405  675]	[ 90 570 405 675]
496.306	1.0	2680704	2681704	ELCue	VGS	80	3	False	lime	600	[1350 1830  405  675]	[ 90 570 405 675]
522.444	6.0	2706842	2712880	ShowFixation	ANTI	81	4	False	red	180	[1035 1515  405  675]	[405 885 405 675]
528.482	0.2	2712880	2713120	BlankScreen	ANTI	81	4	False	red	180	[1035 1515  405  675]	[405 885 405 675]
528.722	1.0	2713120	2714120	ELCue	ANTI	81	4	False	red	180	[1035 1515  405  675]	[405 885 405 675]
530.141	6.0	2714539	2720571	ShowFixation	ANTI	82	4	False	red	600	[ 90 570 405 675]	[1350 1830  405  675]
536.173	0.2	2720571	2720811	BlankScreen	ANTI	82	4	False	red	600	[ 90 570 405 675]	[1350 1830  405  675]
536.413	1.0	2720811	2721811	ELCue	ANTI	82	4	False	red	600	[ 90 570 405 675]	[1350 1830  405  675]
537.835	6.0	2722233	2728262	ShowFixation	ANTI	83	4	False	red	460	[405 885 405 675]	[1035 1515  405  675]
543.864	0.2	2728262	2728502	BlankScreen	ANTI	83	4	False	red	460	[405 885 405 675]	[1035 1515  405  675]
544.104	1.0	2728502	2729502	ELCue	ANTI	83	4	False	red	460	[405 885 405 675]	[1035 1515  405  675]
545.522	2.0	2729920	2731953	ShowFixation	VGS	84	4	False	lime	460	[1035 1515  405  675]	[405 885 405 675]
547.555	0.2	2731953	2732188	BlankScreen	VGS	84	4	False	lime	460	[1035 1515  405  675]	[405 885 405 675]
547.79	1.0	2732188	2733188	ELCue	VGS	84	4	False	lime	460	[1035 1515  405  675]	[405 885 405 675]
549.21	2.0	2733608	2735640	ShowFixation	ANTI	85	4	False	red	600	[ 90 570 405 675]	[1350 1830  405  675]
551.242	0.2	2735640	2735875	BlankScreen	ANTI	85	4	False	red	600	[ 90 570 405 675]	[1350 1830  405  675]
551.477	1.0	2735875	2736875	ELCue	ANTI	85	4	False	red	600	[ 90 570 405 675]	[1350 1830  405  675]
552.882	6.0	2737280	2743310	ShowFixation	ANTI	86	4	False	red	460	[405 885 405 675]	[1035 1515  405  675]
558.912	0.2	2743310	2743550	BlankScreen	ANTI	86	4	False	red	460	[405 885 405 675]	[1035 1515  405  675]
559.152	1.0	2743550	2744550	ELCue	ANTI	86	4	False	red	460	[405 885 405 675]	[1035 1515  405  675]
560.606	2.0	2745004	2747035	ShowFixation	VGS	87	4	False	lime	180	[405 885 405 675]	[1035 1515  405  675]
562.637	0.2	2747035	2747270	BlankScreen	VGS	87	4	False	lime	180	[405 885 405 675]	[1035 1515  405  675]
562.872	1.0	2747270	2748270	ELCue	VGS	87	4	False	lime	180	[405 885 405 675]	[1035 1515  405  675]
564.291	6.0	2748689	2754722	ShowFixation	ANTI	88	4	False	red	600	[ 90 570 405 675]	[1350 1830  405  675]
570.324	0.2	2754722	2754961	BlankScreen	ANTI	88	4	False	red	600	[ 90 570 405 675]	[1350 1830  405  675]
570.563	1.0	2754961	2755961	ELCue	ANTI	88	4	False	red	600	[ 90 570 405 675]	[1350 1830  405  675]
571.988	6.0	2756386	2762413	ShowFixation	VGS	89	4	False	lime	180	[405 885 405 675]	[1035 1515  405  675]
578.015	0.2	2762413	2762652	BlankScreen	VGS	89	4	False	lime	180	[405 885 405 675]	[1035 1515  405  675]
578.254	1.0	2762652	2763652	ELCue	VGS	89	4	False	lime	180	[405 885 405 675]	[1035 1515  405  675]
579.675	2.0	2764073	2766103	ShowFixation	ANTI	90	4	False	red	460	[405 885 405 675]	[1035 1515  405  675]
581.705	0.2	2766103	2766339	BlankScreen	ANTI	90	4	False	red	460	[405 885 405 675]	[1035 1515  405  675]
581.941	1.0	2766339	2767339	ELCue	ANTI	90	4	False	red	460	[405 885 405 675]	[1035 1515  405  675]
583.344	2.0	2767742	2769774	ShowFixation	ANTI	91	4	False	red	180	[1035 1515  405  675]	[405 885 405 675]
585.376	0.2	2769774	2770009	BlankScreen	ANTI	91	4	False	red	180	[1035 1515  405  675]	[405 885 405 675]
585.611	1.0	2770009	2771009	ELCue	ANTI	91	4	False	red	180	[1035 1515  405  675]	[405 885 405 675]
587.036	2.0	2771434	2773461	ShowFixation	ANTI	92	4	False	red	40	[1350 1830  405  675]	[ 90 570 405 675]
589.063	0.2	2773461	2773696	BlankScreen	ANTI	92	4	False	red	40	[1350 1830  405  675]	[ 90 570 405 675]
589.298	1.0	2773696	2774696	ELCue	ANTI	92	4	False	red	40	[1350 1830  405  675]	[ 90 570 405 675]
590.72	6.0	2775118	2781148	ShowFixation	VGS	93	4	False	lime	40	[ 90 570 405 675]	[1350 1830  405  675]
596.75	0.2	2781148	2781387	BlankScreen	VGS	93	4	False	lime	40	[ 90 570 405 675]	[1350 1830  405  675]
596.989	1.0	2781387	2782387	ELCue	VGS	93	4	False	lime	40	[ 90 570 405 675]	[1350 1830  405  675]
598.412	6.0	2782810	2788839	ShowFixation	ANTI	94	4	False	red	40	[1350 1830  405  675]	[ 90 570 405 675]
604.441	0.2	2788839	2789078	BlankScreen	ANTI	94	4	False	red	40	[1350 1830  405  675]	[ 90 570 405 675]
604.68	1.0	2789078	2790078	ELCue	ANTI	94	4	False	red	40	[1350 1830  405  675]	[ 90 570 405 675]
606.103	2.0	2790501	2792530	ShowFixation	VGS	95	4	False	lime	600	[1350 1830  405  675]	[ 90 570 405 675]
608.132	0.2	2792530	2792765	BlankScreen	VGS	95	4	False	lime	600	[1350 1830  405  675]	[ 90 570 405 675]
608.367	1.0	2792765	2793765	ELCue	VGS	95	4	False	lime	600	[1350 1830  405  675]	[ 90 570 405 675]
609.784	2.0	2794182	2796217	ShowFixation	ANTI	96	4	False	red	460	[405 885 405 675]	[1035 1515  405  675]
611.819	0.2	2796217	2796452	BlankScreen	ANTI	96	4	False	red	460	[405 885 405 675]	[1035 1515  405  675]
612.054	1.0	2796452	2797452	ELCue	ANTI	96	4	False	red	460	[405 885 405 675]	[1035 1515  405  675]
613.475	2.0	2797873	2799903	ShowFixation	ANTI	97	4	False	red	180	[1035 1515  405  675]	[405 885 405 675]
615.505	0.2	2799903	2800139	BlankScreen	ANTI	97	4	False	red	180	[1035 1515  405  675]	[405 885 405 675]
615.741	1.0	2800139	2801139	ELCue	ANTI	97	4	False	red	180	[1035 1515  405  675]	[405 885 405 675]
617.16	2.0	2801558	2803590	ShowFixation	VGS	98	4	False	lime	180	[405 885 405 675]	[1035 1515  405  675]
619.192	0.2	2803590	2803826	BlankScreen	VGS	98	4	False	lime	180	[405 885 405 675]	[1035 1515  405  675]
619.428	1.0	2803826	2804826	ELCue	VGS	98	4	False	lime	180	[405 885 405 675]	[1035 1515  405  675]
620.849	2.0	2805247	2807277	ShowFixation	VGS	99	4	False	lime	40	[ 90 570 405 675]	[1350 1830  405  675]
622.879	0.2	2807277	2807513	BlankScreen	VGS	99	4	False	lime	40	[ 90 570 405 675]	[1350 1830  405  675]
623.115	1.0	2807513	2808513	ELCue	VGS	99	4	False	lime	40	[ 90 570 405 675]	[1350 1830  405  675]
624.538	6.0	2808936	2814964	ShowFixation	VGS	100	4	False	lime	180	[405 885 405 675]	[1035 1515  405  675]
630.567	0.2	2814965	2815205	BlankScreen	VGS	100	4	False	lime	180	[405 885 405 675]	[1035 1515  405  675]
630.807	1.0	2815205	2816205	ELCue	VGS	100	4	False	lime	180	[405 885 405 675]	[1035 1515  405  675]
632.232	2.0	2816630	2818656	ShowFixation	VGS	101	4	False	lime	460	[1035 1515  405  675]	[405 885 405 675]
634.258	0.2	2818656	2818891	BlankScreen	VGS	101	4	False	lime	460	[1035 1515  405  675]	[405 885 405 675]
634.494	1.0	2818892	2819892	ELCue	VGS	101	4	False	lime	460	[1035 1515  405  675]	[405 885 405 675]
635.917	6.0	2820315	2826343	ShowFixation	ANTI	102	4	False	red	40	[1350 1830  405  675]	[ 90 570 405 675]
641.945	0.2	2826343	2826583	BlankScreen	ANTI	102	4	False	red	40	[1350 1830  405  675]	[ 90 570 405 675]
642.185	1.0	2826583	2827583	ELCue	ANTI	102	4	False	red	40	[1350 1830  405  675]	[ 90 570 405 675]
643.59	2.0	2827988	2830017	ShowFixation	ANTI	103	4	False	red	600	[ 90 570 405 675]	[1350 1830  405  675]
645.619	0.2	2830017	2830253	BlankScreen	ANTI	103	4	False	red	600	[ 90 570 405 675]	[1350 1830  405  675]
645.855	1.0	2830253	2831253	ELCue	ANTI	103	4	False	red	600	[ 90 570 405 675]	[1350 1830  405  675]
647.277	6.0	2831675	2837704	ShowFixation	VGS	104	4	False	lime	600	[1350 1830  405  675]	[ 90 570 405 675]
653.306	0.2	2837704	2837944	BlankScreen	VGS	104	4	False	lime	600	[1350 1830  405  675]	[ 90 570 405 675]
653.546	1.0	2837944	2838944	ELCue	VGS	104	4	False	lime	600	[1350 1830  405  675]	[ 90 570 405 675]
654.966	6.0	2839364	2845395	ShowFixation	VGS	105	4	False	lime	40	[ 90 570 405 675]	[1350 1830  405  675]
660.997	0.2	2845395	2845635	BlankScreen	VGS	105	4	False	lime	40	[ 90 570 405 675]	[1350 1830  405  675]
661.237	1.0	2845635	2846635	ELCue	VGS	105	4	False	lime	40	[ 90 570 405 675]	[1350 1830  405  675]
662.664	2.0	2847062	2849103	ShowFixation	VGS	106	4	False	lime	600	[1350 1830  405  675]	[ 90 570 405 675]
664.705	0.2	2849103	2849338	BlankScreen	VGS	106	4	False	lime	600	[1350 1830  405  675]	[ 90 570 405 675]
664.94	1.0	2849338	2850338	ELCue	VGS	106	4	False	lime	600	[1350 1830  405  675]	[ 90 570 405 675]
666.366	6.0	2850764	2856790	ShowFixation	ANTI	107	4	False	red	180	[1035 1515  405  675]	[405 885 405 675]
672.392	0.2	2856790	2857029	BlankScreen	ANTI	107	4	False	red	180	[1035 1515  405  675]	[405 885 405 675]
672.631	1.0	2857029	2858029	ELCue	ANTI	107	4	False	red	180	[1035 1515  405  675]	[405 885 405 675]
674.053	6.0	2858451	2864481	ShowFixation	VGS	108	4	False	lime	460	[1035 1515  405  675]	[405 885 405 675]
680.083	0.2	2864481	2864720	BlankScreen	VGS	108	4	False	lime	460	[1035 1515  405  675]	[405 885 405 675]
680.322	1.0	2864720	2865720	ELCue	VGS	108	4	False	lime	460	[1035 1515  405  675]	[405 885 405 675]
681.745	2.0	2866143	2868172	ShowFixation	VGS	109	4	False	lime	40	[ 90 570 405 675]	[1350 1830  405  675]
683.774	0.2	2868172	2868407	BlankScreen	VGS	109	4	False	lime	40	[ 90 570 405 675]	[1350 1830  405  675]
684.009	1.0	2868407	2869407	ELCue	VGS	109	4	False	lime	40	[ 90 570 405 675]	[1350 1830  405  675]
685.426	6.0	2869824	2875859	ShowFixation	VGS	110	4	False	lime	460	[1035 1515  405  675]	[405 885 405 675]
691.461	0.2	2875859	2876098	BlankScreen	VGS	110	4	False	lime	460	[1035 1515  405  675]	[405 885 405 675]
691.7	1.0	2876098	2877098	ELCue	VGS	110	4	False	lime	460	[1035 1515  405  675]	[405 885 405 675]
693.123	6.0	2877521	2883550	ShowFixation	VGS	111	4	False	lime	600	[1350 1830  405  675]	[ 90 570 405 675]
699.152	0.2	2883550	2883789	BlankScreen	VGS	111	4	False	lime	600	[1350 1830  405  675]	[ 90 570 405 675]
699.391	1.0	2883789	2884789	ELCue	VGS	111	4	False	lime	600	[1350 1830  405  675]	[ 90 570 405 675]
700.807	2.0	2885205	2887241	ShowFixation	ANTI	112	4	False	red	40	[1350 1830  405  675]	[ 90 570 405 675]
702.843	0.2	2887241	2887476	BlankScreen	ANTI	112	4	False	red	40	[1350 1830  405  675]	[ 90 570 405 675]
703.078	1.0	2887476	2888476	ELCue	ANTI	112	4	False	red	40	[1350 1830  405  675]	[ 90 570 405 675]
