onset	duration	startTime	stopTime	eventIdentifier	trial_type	trial_number	block_number	is_practice	fixation_color	cue_side	aoi_correct	aoi_incorrect
0.153	2.0	1393473	1395503	ShowFixation	ANTI	1	1	True	red	600	[ 90 570 405 675]	[1350 1830  405  675]
2.183	0.2	1395503	1395739	BlankScreen	ANTI	1	1	True	red	600	[ 90 570 405 675]	[1350 1830  405  675]
2.419	1.0	1395739	1396779	ELCue	ANTI	1	1	True	red	600	[ 90 570 405 675]	[1350 1830  405  675]
3.885	6.0	1397205	1403824	ShowFixation	ANTI	2	1	True	red	180	[1035 1515  405  675]	[405 885 405 675]
10.504	0.2	1403824	1404063	BlankScreen	ANTI	2	1	True	red	180	[1035 1515  405  675]	[405 885 405 675]
10.743	1.0	1404063	1405102	ELCue	ANTI	2	1	True	red	180	[1035 1515  405  675]	[405 885 405 675]
12.17	2.0	1405490	1408116	ShowFixation	ANTI	3	1	True	red	460	[405 885 405 675]	[1035 1515  405  675]
14.796	0.2	1408116	1408334	BlankScreen	ANTI	3	1	True	red	460	[405 885 405 675]	[1035 1515  405  675]
15.014	1.0	1408334	1409358	ELCue	ANTI	3	1	True	red	460	[405 885 405 675]	[1035 1515  405  675]
16.46	6.0	1409780	1416403	ShowFixation	ANTI	4	1	True	red	460	[405 885 405 675]	[1035 1515  405  675]
23.083	0.2	1416403	1416643	BlankScreen	ANTI	4	1	True	red	460	[405 885 405 675]	[1035 1515  405  675]
23.323	1.0	1416643	1417683	ELCue	ANTI	4	1	True	red	460	[405 885 405 675]	[1035 1515  405  675]
24.784	2.0	1418104	1420728	ShowFixation	ANTI	5	1	True	red	40	[1350 1830  405  675]	[ 90 570 405 675]
27.408	0.2	1420728	1420964	BlankScreen	ANTI	5	1	True	red	40	[1350 1830  405  675]	[ 90 570 405 675]
27.644	1.0	1420964	1422005	ELCue	ANTI	5	1	True	red	40	[1350 1830  405  675]	[ 90 570 405 675]
29.088	6.0	1422408	1429049	ShowFixation	VGS	6	1	True	lime	180	[405 885 405 675]	[1035 1515  405  675]
35.729	0.2	1429049	1429288	BlankScreen	VGS	6	1	True	lime	180	[405 885 405 675]	[1035 1515  405  675]
35.968	1.0	1429288	1430326	ELCue	VGS	6	1	True	lime	180	[405 885 405 675]	[1035 1515  405  675]
37.432	2.0	1430752	1433374	ShowFixation	VGS	7	1	True	lime	180	[405 885 405 675]	[1035 1515  405  675]
40.054	0.2	1433374	1433609	BlankScreen	VGS	7	1	True	lime	180	[405 885 405 675]	[1035 1515  405  675]
40.289	1.0	1433609	1434651	ELCue	VGS	7	1	True	lime	180	[405 885 405 675]	[1035 1515  405  675]
41.749	6.0	1435069	1441696	ShowFixation	VGS	8	1	True	lime	600	[1350 1830  405  675]	[ 90 570 405 675]
48.376	0.2	1441696	1441934	BlankScreen	VGS	8	1	True	lime	600	[1350 1830  405  675]	[ 90 570 405 675]
48.614	1.0	1441934	1442975	ELCue	VGS	8	1	True	lime	600	[1350 1830  405  675]	[ 90 570 405 675]
50.072	2.0	1443392	1446003	ShowFixation	VGS	9	1	True	lime	40	[ 90 570 405 675]	[1350 1830  405  675]
52.683	0.2	1446003	1446222	BlankScreen	VGS	9	1	True	lime	40	[ 90 570 405 675]	[1350 1830  405  675]
52.903	1.0	1446223	1447245	ELCue	VGS	9	1	True	lime	40	[ 90 570 405 675]	[1350 1830  405  675]
54.35	6.0	1447670	1454292	ShowFixation	VGS	10	1	True	lime	460	[1035 1515  405  675]	[405 885 405 675]
60.972	0.2	1454292	1454531	BlankScreen	VGS	10	1	True	lime	460	[1035 1515  405  675]	[405 885 405 675]
61.211	1.0	1454531	1455571	ELCue	VGS	10	1	True	lime	460	[1035 1515  405  675]	[405 885 405 675]
62.673	2.0	1455993	1458616	ShowFixation	VGS	11	1	True	lime	600	[1350 1830  405  675]	[ 90 570 405 675]
65.296	0.2	1458616	1458852	BlankScreen	VGS	11	1	True	lime	600	[1350 1830  405  675]	[ 90 570 405 675]
65.532	1.0	1458852	1459892	ELCue	VGS	11	1	True	lime	600	[1350 1830  405  675]	[ 90 570 405 675]
66.991	6.0	1460311	1466937	ShowFixation	VGS	12	1	True	lime	40	[ 90 570 405 675]	[1350 1830  405  675]
73.617	0.2	1466937	1467177	BlankScreen	VGS	12	1	True	lime	40	[ 90 570 405 675]	[1350 1830  405  675]
73.857	1.0	1467177	1468217	ELCue	VGS	12	1	True	lime	40	[ 90 570 405 675]	[1350 1830  405  675]
75.32	2.0	1468640	1471262	ShowFixation	VGS	13	1	True	lime	460	[1035 1515  405  675]	[405 885 405 675]
77.942	0.2	1471262	1471498	BlankScreen	VGS	13	1	True	lime	460	[1035 1515  405  675]	[405 885 405 675]
78.178	1.0	1471498	1472535	ELCue	VGS	13	1	True	lime	460	[1035 1515  405  675]	[405 885 405 675]
79.633	2.0	1472953	1475583	ShowFixation	ANTI	14	1	True	red	180	[1035 1515  405  675]	[405 885 405 675]
82.263	0.2	1475583	1475819	BlankScreen	ANTI	14	1	True	red	180	[1035 1515  405  675]	[405 885 405 675]
82.499	1.0	1475819	1476856	ELCue	ANTI	14	1	True	red	180	[1035 1515  405  675]	[405 885 405 675]
83.95	6.0	1477270	1483871	ShowFixation	ANTI	15	1	True	red	600	[ 90 570 405 675]	[1350 1830  405  675]
90.551	0.2	1483871	1484110	BlankScreen	ANTI	15	1	True	red	600	[ 90 570 405 675]	[1350 1830  405  675]
90.79	1.0	1484110	1485147	ELCue	ANTI	15	1	True	red	600	[ 90 570 405 675]	[1350 1830  405  675]
92.249	6.0	1485569	1492197	ShowFixation	ANTI	16	1	True	red	40	[1350 1830  405  675]	[ 90 570 405 675]
98.877	0.2	1492197	1492435	BlankScreen	ANTI	16	1	True	red	40	[1350 1830  405  675]	[ 90 570 405 675]
99.115	1.0	1492435	1493475	ELCue	ANTI	16	1	True	red	40	[1350 1830  405  675]	[ 90 570 405 675]
173.496	6.0	1566816	1572842	ShowFixation	ANTI	17	2	False	red	460	[405 885 405 675]	[1035 1515  405  675]
179.523	0.2	1572843	1573081	BlankScreen	ANTI	17	2	False	red	460	[405 885 405 675]	[1035 1515  405  675]
179.761	1.0	1573081	1574081	ELCue	ANTI	17	2	False	red	460	[405 885 405 675]	[1035 1515  405  675]
181.183	2.0	1574503	1576534	ShowFixation	ANTI	18	2	False	red	40	[1350 1830  405  675]	[ 90 570 405 675]
183.214	0.2	1576534	1576768	BlankScreen	ANTI	18	2	False	red	40	[1350 1830  405  675]	[ 90 570 405 675]
183.449	1.0	1576769	1577769	ELCue	ANTI	18	2	False	red	40	[1350 1830  405  675]	[ 90 570 405 675]
184.873	2.0	1578193	1580221	ShowFixation	ANTI	19	2	False	red	180	[1035 1515  405  675]	[405 885 405 675]
186.901	0.2	1580221	1580456	BlankScreen	ANTI	19	2	False	red	180	[1035 1515  405  675]	[405 885 405 675]
187.136	1.0	1580456	1581456	ELCue	ANTI	19	2	False	red	180	[1035 1515  405  675]	[405 885 405 675]
188.56	2.0	1581880	1583908	ShowFixation	VGS	20	2	False	lime	460	[1035 1515  405  675]	[405 885 405 675]
190.588	0.2	1583908	1584143	BlankScreen	VGS	20	2	False	lime	460	[1035 1515  405  675]	[405 885 405 675]
190.823	1.0	1584143	1585143	ELCue	VGS	20	2	False	lime	460	[1035 1515  405  675]	[405 885 405 675]
192.249	6.0	1585569	1591595	ShowFixation	VGS	21	2	False	lime	600	[1350 1830  405  675]	[ 90 570 405 675]
198.275	0.2	1591595	1591834	BlankScreen	VGS	21	2	False	lime	600	[1350 1830  405  675]	[ 90 570 405 675]
198.514	1.0	1591834	1592834	ELCue	VGS	21	2	False	lime	600	[1350 1830  405  675]	[ 90 570 405 675]
199.937	6.0	1593257	1599286	ShowFixation	VGS	22	2	False	lime	40	[ 90 570 405 675]	[1350 1830  405  675]
205.966	0.2	1599286	1599525	BlankScreen	VGS	22	2	False	lime	40	[ 90 570 405 675]	[1350 1830  405  675]
206.205	1.0	1599525	1600525	ELCue	VGS	22	2	False	lime	40	[ 90 570 405 675]	[1350 1830  405  675]
207.627	2.0	1600947	1602977	ShowFixation	VGS	23	2	False	lime	460	[1035 1515  405  675]	[405 885 405 675]
209.657	0.2	1602977	1603212	BlankScreen	VGS	23	2	False	lime	460	[1035 1515  405  675]	[405 885 405 675]
209.892	1.0	1603212	1604212	ELCue	VGS	23	2	False	lime	460	[1035 1515  405  675]	[405 885 405 675]
211.318	2.0	1604638	1606663	ShowFixation	VGS	24	2	False	lime	600	[1350 1830  405  675]	[ 90 570 405 675]
213.343	0.2	1606663	1606899	BlankScreen	VGS	24	2	False	lime	600	[1350 1830  405  675]	[ 90 570 405 675]
213.579	1.0	1606899	1607899	ELCue	VGS	24	2	False	lime	600	[1350 1830  405  675]	[ 90 570 405 675]
215.008	2.0	1608328	1610367	ShowFixation	ANTI	25	2	False	red	600	[ 90 570 405 675]	[1350 1830  405  675]
217.047	0.2	1610367	1610602	BlankScreen	ANTI	25	2	False	red	600	[ 90 570 405 675]	[1350 1830  405  675]
217.282	1.0	1610602	1611602	ELCue	ANTI	25	2	False	red	600	[ 90 570 405 675]	[1350 1830  405  675]
218.707	6.0	1612027	1618054	ShowFixation	ANTI	26	2	False	red	600	[ 90 570 405 675]	[1350 1830  405  675]
224.734	0.2	1618054	1618293	BlankScreen	ANTI	26	2	False	red	600	[ 90 570 405 675]	[1350 1830  405  675]
224.973	1.0	1618293	1619293	ELCue	ANTI	26	2	False	red	600	[ 90 570 405 675]	[1350 1830  405  675]
226.402	6.0	1619722	1625762	ShowFixation	ANTI	27	2	False	red	40	[1350 1830  405  675]	[ 90 570 405 675]
232.442	0.2	1625762	1626001	BlankScreen	ANTI	27	2	False	red	40	[1350 1830  405  675]	[ 90 570 405 675]
232.681	1.0	1626001	1627001	ELCue	ANTI	27	2	False	red	40	[1350 1830  405  675]	[ 90 570 405 675]
234.107	2.0	1627427	1629453	ShowFixation	VGS	28	2	False	lime	600	[1350 1830  405  675]	[ 90 570 405 675]
236.133	0.2	1629453	1629688	BlankScreen	VGS	28	2	False	lime	600	[1350 1830  405  675]	[ 90 570 405 675]
236.368	1.0	1629688	1630688	ELCue	VGS	28	2	False	lime	600	[1350 1830  405  675]	[ 90 570 405 675]
237.791	6.0	1631111	1637140	ShowFixation	VGS	29	2	False	lime	180	[405 885 405 675]	[1035 1515  405  675]
243.82	0.2	1637140	1637379	BlankScreen	VGS	29	2	False	lime	180	[405 885 405 675]	[1035 1515  405  675]
244.059	1.0	1637379	1638379	ELCue	VGS	29	2	False	lime	180	[405 885 405 675]	[1035 1515  405  675]
245.482	6.0	1638802	1644831	ShowFixation	VGS	30	2	False	lime	40	[ 90 570 405 675]	[1350 1830  405  675]
251.511	0.2	1644831	1645070	BlankScreen	VGS	30	2	False	lime	40	[ 90 570 405 675]	[1350 1830  405  675]
251.75	1.0	1645070	1646070	ELCue	VGS	30	2	False	lime	40	[ 90 570 405 675]	[1350 1830  405  675]
253.175	2.0	1646495	1648521	ShowFixation	ANTI	31	2	False	red	40	[1350 1830  405  675]	[ 90 570 405 675]
255.201	0.2	1648521	1648757	BlankScreen	ANTI	31	2	False	red	40	[1350 1830  405  675]	[ 90 570 405 675]
255.437	1.0	1648757	1649757	ELCue	ANTI	31	2	False	red	40	[1350 1830  405  675]	[ 90 570 405 675]
256.855	6.0	1650175	1656208	ShowFixation	ANTI	32	2	False	red	600	[ 90 570 405 675]	[1350 1830  405  675]
262.888	0.2	1656208	1656448	BlankScreen	ANTI	32	2	False	red	600	[ 90 570 405 675]	[1350 1830  405  675]
263.128	1.0	1656448	1657448	ELCue	ANTI	32	2	False	red	600	[ 90 570 405 675]	[1350 1830  405  675]
264.549	2.0	1657869	1659899	ShowFixation	ANTI	33	2	False	red	460	[405 885 405 675]	[1035 1515  405  675]
266.579	0.2	1659899	1660135	BlankScreen	ANTI	33	2	False	red	460	[405 885 405 675]	[1035 1515  405  675]
266.815	1.0	1660135	1661135	ELCue	ANTI	33	2	False	red	460	[405 885 405 675]	[1035 1515  405  675]
268.24	2.0	1661560	1663586	ShowFixation	ANTI	34	2	False	red	600	[ 90 570 405 675]	[1350 1830  405  675]
270.266	0.2	1663586	1663822	BlankScreen	ANTI	34	2	False	red	600	[ 90 570 405 675]	[1350 1830  405  675]
270.502	1.0	1663822	1664822	ELCue	ANTI	34	2	False	red	600	[ 90 570 405 675]	[1350 1830  405  675]
271.928	2.0	1665248	1667273	ShowFixation	VGS	35	2	False	lime	180	[405 885 405 675]	[1035 1515  405  675]
273.953	0.2	1667273	1667509	BlankScreen	VGS	35	2	False	lime	180	[405 885 405 675]	[1035 1515  405  675]
274.189	1.0	1667509	1668509	ELCue	VGS	35	2	False	lime	180	[405 885 405 675]	[1035 1515  405  675]
275.617	2.0	1668937	1670977	ShowFixation	ANTI	36	2	False	red	180	[1035 1515  405  675]	[405 885 405 675]
277.657	0.2	1670977	1671212	BlankScreen	ANTI	36	2	False	red	180	[1035 1515  405  675]	[405 885 405 675]
277.892	1.0	1671212	1672212	ELCue	ANTI	36	2	False	red	180	[1035 1515  405  675]	[405 885 405 675]
279.319	2.0	1672639	1674664	ShowFixation	VGS	37	2	False	lime	40	[ 90 570 405 675]	[1350 1830  405  675]
281.344	0.2	1674664	1674899	BlankScreen	VGS	37	2	False	lime	40	[ 90 570 405 675]	[1350 1830  405  675]
281.579	1.0	1674899	1675899	ELCue	VGS	37	2	False	lime	40	[ 90 570 405 675]	[1350 1830  405  675]
283.004	6.0	1676324	1682351	ShowFixation	VGS	38	2	False	lime	460	[1035 1515  405  675]	[405 885 405 675]
289.031	0.2	1682351	1682590	BlankScreen	VGS	38	2	False	lime	460	[1035 1515  405  675]	[405 885 405 675]
289.27	1.0	1682590	1683590	ELCue	VGS	38	2	False	lime	460	[1035 1515  405  675]	[405 885 405 675]
290.691	2.0	1684011	1686042	ShowFixation	ANTI	39	2	False	red	460	[405 885 405 675]	[1035 1515  405  675]
292.722	0.2	1686042	1686277	BlankScreen	ANTI	39	2	False	red	460	[405 885 405 675]	[1035 1515  405  675]
292.957	1.0	1686277	1687277	ELCue	ANTI	39	2	False	red	460	[405 885 405 675]	[1035 1515  405  675]
294.381	6.0	1687701	1693729	ShowFixation	ANTI	40	2	False	red	180	[1035 1515  405  675]	[405 885 405 675]
300.409	0.2	1693729	1693968	BlankScreen	ANTI	40	2	False	red	180	[1035 1515  405  675]	[405 885 405 675]
300.648	1.0	1693968	1694968	ELCue	ANTI	40	2	False	red	180	[1035 1515  405  675]	[405 885 405 675]
302.069	6.0	1695389	1701420	ShowFixation	ANTI	41	2	False	red	460	[405 885 405 675]	[1035 1515  405  675]
308.1	0.2	1701420	1701660	BlankScreen	ANTI	41	2	False	red	460	[405 885 405 675]	[1035 1515  405  675]
308.34	1.0	1701660	1702660	ELCue	ANTI	41	2	False	red	460	[405 885 405 675]	[1035 1515  405  675]
309.76	6.0	1703080	1709112	ShowFixation	VGS	42	2	False	lime	460	[1035 1515  405  675]	[405 885 405 675]
315.792	0.2	1709112	1709351	BlankScreen	VGS	42	2	False	lime	460	[1035 1515  405  675]	[405 885 405 675]
316.031	1.0	1709351	1710351	ELCue	VGS	42	2	False	lime	460	[1035 1515  405  675]	[405 885 405 675]
317.456	6.0	1710776	1716802	ShowFixation	VGS	43	2	False	lime	600	[1350 1830  405  675]	[ 90 570 405 675]
323.482	0.2	1716802	1717042	BlankScreen	VGS	43	2	False	lime	600	[1350 1830  405  675]	[ 90 570 405 675]
323.722	1.0	1717042	1718042	ELCue	VGS	43	2	False	lime	600	[1350 1830  405  675]	[ 90 570 405 675]
325.141	6.0	1718461	1724493	ShowFixation	VGS	44	2	False	lime	180	[405 885 405 675]	[1035 1515  405  675]
331.173	0.2	1724493	1724733	BlankScreen	VGS	44	2	False	lime	180	[405 885 405 675]	[1035 1515  405  675]
331.413	1.0	1724733	1725733	ELCue	VGS	44	2	False	lime	180	[405 885 405 675]	[1035 1515  405  675]
332.823	6.0	1726143	1732168	ShowFixation	ANTI	45	2	False	red	180	[1035 1515  405  675]	[405 885 405 675]
338.848	0.2	1732168	1732407	BlankScreen	ANTI	45	2	False	red	180	[1035 1515  405  675]	[405 885 405 675]
339.087	1.0	1732407	1733407	ELCue	ANTI	45	2	False	red	180	[1035 1515  405  675]	[405 885 405 675]
340.514	6.0	1733834	1739859	ShowFixation	ANTI	46	2	False	red	40	[1350 1830  405  675]	[ 90 570 405 675]
346.539	0.2	1739859	1740098	BlankScreen	ANTI	46	2	False	red	40	[1350 1830  405  675]	[ 90 570 405 675]
346.778	1.0	1740098	1741098	ELCue	ANTI	46	2	False	red	40	[1350 1830  405  675]	[ 90 570 405 675]
348.205	2.0	1741525	1743549	ShowFixation	VGS	47	2	False	lime	180	[405 885 405 675]	[1035 1515  405  675]
350.229	0.2	1743549	1743785	BlankScreen	VGS	47	2	False	lime	180	[405 885 405 675]	[1035 1515  405  675]
350.465	1.0	1743785	1744785	ELCue	VGS	47	2	False	lime	180	[405 885 405 675]	[1035 1515  405  675]
351.89	2.0	1745210	1747236	ShowFixation	VGS	48	2	False	lime	40	[ 90 570 405 675]	[1350 1830  405  675]
353.916	0.2	1747236	1747472	BlankScreen	VGS	48	2	False	lime	40	[ 90 570 405 675]	[1350 1830  405  675]
354.152	1.0	1747472	1748472	ELCue	VGS	48	2	False	lime	40	[ 90 570 405 675]	[1350 1830  405  675]
536.109	2.0	1929429	1931469	ShowFixation	ANTI	49	3	False	red	40	[1350 1830  405  675]	[ 90 570 405 675]
538.149	0.2	1931469	1931704	BlankScreen	ANTI	49	3	False	red	40	[1350 1830  405  675]	[ 90 570 405 675]
538.384	1.0	1931704	1932704	ELCue	ANTI	49	3	False	red	40	[1350 1830  405  675]	[ 90 570 405 675]
539.808	6.0	1933128	1939156	ShowFixation	ANTI	50	3	False	red	180	[1035 1515  405  675]	[405 885 405 675]
545.836	0.2	1939156	1939396	BlankScreen	ANTI	50	3	False	red	180	[1035 1515  405  675]	[405 885 405 675]
546.076	1.0	1939396	1940396	ELCue	ANTI	50	3	False	red	180	[1035 1515  405  675]	[405 885 405 675]
547.501	2.0	1940821	1942847	ShowFixation	VGS	51	3	False	lime	600	[1350 1830  405  675]	[ 90 570 405 675]
549.527	0.2	1942847	1943082	BlankScreen	VGS	51	3	False	lime	600	[1350 1830  405  675]	[ 90 570 405 675]
549.762	1.0	1943082	1944082	ELCue	VGS	51	3	False	lime	600	[1350 1830  405  675]	[ 90 570 405 675]
551.187	6.0	1944507	1950534	ShowFixation	VGS	52	3	False	lime	40	[ 90 570 405 675]	[1350 1830  405  675]
557.214	0.2	1950534	1950773	BlankScreen	VGS	52	3	False	lime	40	[ 90 570 405 675]	[1350 1830  405  675]
557.453	1.0	1950773	1951773	ELCue	VGS	52	3	False	lime	40	[ 90 570 405 675]	[1350 1830  405  675]
558.882	6.0	1952202	1958242	ShowFixation	ANTI	53	3	False	red	460	[405 885 405 675]	[1035 1515  405  675]
564.923	0.2	1958243	1958481	BlankScreen	ANTI	53	3	False	red	460	[405 885 405 675]	[1035 1515  405  675]
565.162	1.0	1958482	1959482	ELCue	ANTI	53	3	False	red	460	[405 885 405 675]	[1035 1515  405  675]
566.588	6.0	1959908	1965950	ShowFixation	VGS	54	3	False	lime	40	[ 90 570 405 675]	[1350 1830  405  675]
572.63	0.2	1965950	1966189	BlankScreen	VGS	54	3	False	lime	40	[ 90 570 405 675]	[1350 1830  405  675]
572.869	1.0	1966189	1967189	ELCue	VGS	54	3	False	lime	40	[ 90 570 405 675]	[1350 1830  405  675]
574.296	6.0	1967616	1973641	ShowFixation	ANTI	55	3	False	red	180	[1035 1515  405  675]	[405 885 405 675]
580.321	0.2	1973641	1973880	BlankScreen	ANTI	55	3	False	red	180	[1035 1515  405  675]	[405 885 405 675]
580.56	1.0	1973880	1974880	ELCue	ANTI	55	3	False	red	180	[1035 1515  405  675]	[405 885 405 675]
581.986	6.0	1975306	1981332	ShowFixation	ANTI	56	3	False	red	460	[405 885 405 675]	[1035 1515  405  675]
588.012	0.2	1981332	1981571	BlankScreen	ANTI	56	3	False	red	460	[405 885 405 675]	[1035 1515  405  675]
588.251	1.0	1981571	1982571	ELCue	ANTI	56	3	False	red	460	[405 885 405 675]	[1035 1515  405  675]
589.677	2.0	1982997	1985023	ShowFixation	ANTI	57	3	False	red	600	[ 90 570 405 675]	[1350 1830  405  675]
591.703	0.2	1985023	1985258	BlankScreen	ANTI	57	3	False	red	600	[ 90 570 405 675]	[1350 1830  405  675]
591.938	1.0	1985258	1986258	ELCue	ANTI	57	3	False	red	600	[ 90 570 405 675]	[1350 1830  405  675]
593.361	2.0	1986681	1988710	ShowFixation	ANTI	58	3	False	red	600	[ 90 570 405 675]	[1350 1830  405  675]
595.39	0.2	1988710	1988945	BlankScreen	ANTI	58	3	False	red	600	[ 90 570 405 675]	[1350 1830  405  675]
595.625	1.0	1988945	1989945	ELCue	ANTI	58	3	False	red	600	[ 90 570 405 675]	[1350 1830  405  675]
597.054	2.0	1990374	1992414	ShowFixation	VGS	59	3	False	lime	180	[405 885 405 675]	[1035 1515  405  675]
599.094	0.2	1992414	1992649	BlankScreen	VGS	59	3	False	lime	180	[405 885 405 675]	[1035 1515  405  675]
599.329	1.0	1992649	1993649	ELCue	VGS	59	3	False	lime	180	[405 885 405 675]	[1035 1515  405  675]
600.752	2.0	1994072	1996101	ShowFixation	VGS	60	3	False	lime	40	[ 90 570 405 675]	[1350 1830  405  675]
602.781	0.2	1996101	1996336	BlankScreen	VGS	60	3	False	lime	40	[ 90 570 405 675]	[1350 1830  405  675]
603.016	1.0	1996336	1997336	ELCue	VGS	60	3	False	lime	40	[ 90 570 405 675]	[1350 1830  405  675]
604.442	2.0	1997762	1999787	ShowFixation	ANTI	61	3	False	red	460	[405 885 405 675]	[1035 1515  405  675]
606.467	0.2	1999787	2000023	BlankScreen	ANTI	61	3	False	red	460	[405 885 405 675]	[1035 1515  405  675]
606.703	1.0	2000023	2001023	ELCue	ANTI	61	3	False	red	460	[405 885 405 675]	[1035 1515  405  675]
608.13	6.0	2001450	2007491	ShowFixation	VGS	62	3	False	lime	180	[405 885 405 675]	[1035 1515  405  675]
614.171	0.2	2007491	2007730	BlankScreen	VGS	62	3	False	lime	180	[405 885 405 675]	[1035 1515  405  675]
614.41	1.0	2007730	2008730	ELCue	VGS	62	3	False	lime	180	[405 885 405 675]	[1035 1515  405  675]
615.831	2.0	2009151	2011182	ShowFixation	ANTI	63	3	False	red	460	[405 885 405 675]	[1035 1515  405  675]
617.862	0.2	2011182	2011417	BlankScreen	ANTI	63	3	False	red	460	[405 885 405 675]	[1035 1515  405  675]
618.097	1.0	2011417	2012417	ELCue	ANTI	63	3	False	red	460	[405 885 405 675]	[1035 1515  405  675]
619.521	6.0	2012841	2018869	ShowFixation	ANTI	64	3	False	red	600	[ 90 570 405 675]	[1350 1830  405  675]
625.549	0.2	2018869	2019108	BlankScreen	ANTI	64	3	False	red	600	[ 90 570 405 675]	[1350 1830  405  675]
625.788	1.0	2019108	2020108	ELCue	ANTI	64	3	False	red	600	[ 90 570 405 675]	[1350 1830  405  675]
627.212	2.0	2020532	2022560	ShowFixation	VGS	65	3	False	lime	40	[ 90 570 405 675]	[1350 1830  405  675]
629.24	0.2	2022560	2022795	BlankScreen	VGS	65	3	False	lime	40	[ 90 570 405 675]	[1350 1830  405  675]
629.475	1.0	2022795	2023795	ELCue	VGS	65	3	False	lime	40	[ 90 570 405 675]	[1350 1830  405  675]
630.904	6.0	2024224	2030264	ShowFixation	VGS	66	3	False	lime	460	[1035 1515  405  675]	[405 885 405 675]
636.944	0.2	2030264	2030503	BlankScreen	VGS	66	3	False	lime	460	[1035 1515  405  675]	[405 885 405 675]
637.183	1.0	2030503	2031503	ELCue	VGS	66	3	False	lime	460	[1035 1515  405  675]	[405 885 405 675]
638.605	6.0	2031925	2037955	ShowFixation	ANTI	67	3	False	red	40	[1350 1830  405  675]	[ 90 570 405 675]
644.635	0.2	2037955	2038194	BlankScreen	ANTI	67	3	False	red	40	[1350 1830  405  675]	[ 90 570 405 675]
644.874	1.0	2038194	2039194	ELCue	ANTI	67	3	False	red	40	[1350 1830  405  675]	[ 90 570 405 675]
646.302	2.0	2039622	2041662	ShowFixation	ANTI	68	3	False	red	180	[1035 1515  405  675]	[405 885 405 675]
648.342	0.2	2041662	2041897	BlankScreen	ANTI	68	3	False	red	180	[1035 1515  405  675]	[405 885 405 675]
648.577	1.0	2041897	2042897	ELCue	ANTI	68	3	False	red	180	[1035 1515  405  675]	[405 885 405 675]
650.008	6.0	2043328	2049366	ShowFixation	VGS	69	3	False	lime	460	[1035 1515  405  675]	[405 885 405 675]
656.046	0.2	2049366	2049605	BlankScreen	VGS	69	3	False	lime	460	[1035 1515  405  675]	[405 885 405 675]
656.285	1.0	2049605	2050605	ELCue	VGS	69	3	False	lime	460	[1035 1515  405  675]	[405 885 405 675]
657.707	6.0	2051027	2057057	ShowFixation	VGS	70	3	False	lime	180	[405 885 405 675]	[1035 1515  405  675]
663.737	0.2	2057057	2057296	BlankScreen	VGS	70	3	False	lime	180	[405 885 405 675]	[1035 1515  405  675]
663.976	1.0	2057296	2058296	ELCue	VGS	70	3	False	lime	180	[405 885 405 675]	[1035 1515  405  675]
665.398	6.0	2058718	2064748	ShowFixation	VGS	71	3	False	lime	600	[1350 1830  405  675]	[ 90 570 405 675]
671.428	0.2	2064748	2064987	BlankScreen	VGS	71	3	False	lime	600	[1350 1830  405  675]	[ 90 570 405 675]
671.667	1.0	2064987	2065987	ELCue	VGS	71	3	False	lime	600	[1350 1830  405  675]	[ 90 570 405 675]
673.092	6.0	2066412	2072439	ShowFixation	ANTI	72	3	False	red	600	[ 90 570 405 675]	[1350 1830  405  675]
679.119	0.2	2072439	2072678	BlankScreen	ANTI	72	3	False	red	600	[ 90 570 405 675]	[1350 1830  405  675]
679.358	1.0	2072678	2073678	ELCue	ANTI	72	3	False	red	600	[ 90 570 405 675]	[1350 1830  405  675]
680.783	2.0	2074103	2076129	ShowFixation	VGS	73	3	False	lime	600	[1350 1830  405  675]	[ 90 570 405 675]
682.809	0.2	2076129	2076365	BlankScreen	VGS	73	3	False	lime	600	[1350 1830  405  675]	[ 90 570 405 675]
683.045	1.0	2076365	2077365	ELCue	VGS	73	3	False	lime	600	[1350 1830  405  675]	[ 90 570 405 675]
684.471	2.0	2077791	2079816	ShowFixation	ANTI	74	3	False	red	180	[1035 1515  405  675]	[405 885 405 675]
686.496	0.2	2079816	2080052	BlankScreen	ANTI	74	3	False	red	180	[1035 1515  405  675]	[405 885 405 675]
686.732	1.0	2080052	2081052	ELCue	ANTI	74	3	False	red	180	[1035 1515  405  675]	[405 885 405 675]
688.159	2.0	2081479	2083520	ShowFixation	VGS	75	3	False	lime	460	[1035 1515  405  675]	[405 885 405 675]
690.2	0.2	2083520	2083755	BlankScreen	VGS	75	3	False	lime	460	[1035 1515  405  675]	[405 885 405 675]
690.435	1.0	2083755	2084755	ELCue	VGS	75	3	False	lime	460	[1035 1515  405  675]	[405 885 405 675]
691.857	2.0	2085177	2087208	ShowFixation	VGS	76	3	False	lime	460	[1035 1515  405  675]	[405 885 405 675]
693.888	0.2	2087208	2087442	BlankScreen	VGS	76	3	False	lime	460	[1035 1515  405  675]	[405 885 405 675]
694.123	1.0	2087443	2088443	ELCue	VGS	76	3	False	lime	460	[1035 1515  405  675]	[405 885 405 675]
695.513	6.0	2088833	2094862	ShowFixation	VGS	77	3	False	lime	600	[1350 1830  405  675]	[ 90 570 405 675]
701.542	0.2	2094862	2095101	BlankScreen	VGS	77	3	False	lime	600	[1350 1830  405  675]	[ 90 570 405 675]
701.781	1.0	2095101	2096101	ELCue	VGS	77	3	False	lime	600	[1350 1830  405  675]	[ 90 570 405 675]
703.204	2.0	2096524	2098553	ShowFixation	ANTI	78	3	False	red	40	[1350 1830  405  675]	[ 90 570 405 675]
705.233	0.2	2098553	2098788	BlankScreen	ANTI	78	3	False	red	40	[1350 1830  405  675]	[ 90 570 405 675]
705.468	1.0	2098788	2099788	ELCue	ANTI	78	3	False	red	40	[1350 1830  405  675]	[ 90 570 405 675]
706.892	2.0	2100212	2102240	ShowFixation	VGS	79	3	False	lime	180	[405 885 405 675]	[1035 1515  405  675]
708.92	0.2	2102240	2102475	BlankScreen	VGS	79	3	False	lime	180	[405 885 405 675]	[1035 1515  405  675]
709.155	1.0	2102475	2103475	ELCue	VGS	79	3	False	lime	180	[405 885 405 675]	[1035 1515  405  675]
710.579	6.0	2103899	2109927	ShowFixation	ANTI	80	3	False	red	40	[1350 1830  405  675]	[ 90 570 405 675]
716.607	0.2	2109927	2110166	BlankScreen	ANTI	80	3	False	red	40	[1350 1830  405  675]	[ 90 570 405 675]
716.846	1.0	2110166	2111166	ELCue	ANTI	80	3	False	red	40	[1350 1830  405  675]	[ 90 570 405 675]
948.518	2.0	2341838	2343879	ShowFixation	VGS	81	4	False	lime	40	[ 90 570 405 675]	[1350 1830  405  675]
950.56	0.2	2343880	2344115	BlankScreen	VGS	81	4	False	lime	40	[ 90 570 405 675]	[1350 1830  405  675]
950.795	1.0	2344115	2345115	ELCue	VGS	81	4	False	lime	40	[ 90 570 405 675]	[1350 1830  405  675]
952.218	2.0	2345538	2347566	ShowFixation	VGS	82	4	False	lime	600	[1350 1830  405  675]	[ 90 570 405 675]
954.247	0.2	2347567	2347802	BlankScreen	VGS	82	4	False	lime	600	[1350 1830  405  675]	[ 90 570 405 675]
954.482	1.0	2347802	2348802	ELCue	VGS	82	4	False	lime	600	[1350 1830  405  675]	[ 90 570 405 675]
955.906	2.0	2349226	2351254	ShowFixation	ANTI	83	4	False	red	180	[1035 1515  405  675]	[405 885 405 675]
957.934	0.2	2351254	2351489	BlankScreen	ANTI	83	4	False	red	180	[1035 1515  405  675]	[405 885 405 675]
958.169	1.0	2351489	2352489	ELCue	ANTI	83	4	False	red	180	[1035 1515  405  675]	[405 885 405 675]
959.593	6.0	2352913	2358941	ShowFixation	VGS	84	4	False	lime	460	[1035 1515  405  675]	[405 885 405 675]
965.621	0.2	2358941	2359180	BlankScreen	VGS	84	4	False	lime	460	[1035 1515  405  675]	[405 885 405 675]
965.86	1.0	2359180	2360180	ELCue	VGS	84	4	False	lime	460	[1035 1515  405  675]	[405 885 405 675]
967.284	6.0	2360604	2366632	ShowFixation	ANTI	85	4	False	red	600	[ 90 570 405 675]	[1350 1830  405  675]
973.312	0.2	2366632	2366871	BlankScreen	ANTI	85	4	False	red	600	[ 90 570 405 675]	[1350 1830  405  675]
973.551	1.0	2366871	2367871	ELCue	ANTI	85	4	False	red	600	[ 90 570 405 675]	[1350 1830  405  675]
974.981	2.0	2368301	2370339	ShowFixation	VGS	86	4	False	lime	460	[1035 1515  405  675]	[405 885 405 675]
977.019	0.2	2370339	2370575	BlankScreen	VGS	86	4	False	lime	460	[1035 1515  405  675]	[405 885 405 675]
977.255	1.0	2370575	2371575	ELCue	VGS	86	4	False	lime	460	[1035 1515  405  675]	[405 885 405 675]
978.675	2.0	2371995	2374026	ShowFixation	ANTI	87	4	False	red	460	[405 885 405 675]	[1035 1515  405  675]
980.706	0.2	2374026	2374262	BlankScreen	ANTI	87	4	False	red	460	[405 885 405 675]	[1035 1515  405  675]
980.942	1.0	2374262	2375262	ELCue	ANTI	87	4	False	red	460	[405 885 405 675]	[1035 1515  405  675]
982.367	2.0	2375687	2377713	ShowFixation	VGS	88	4	False	lime	600	[1350 1830  405  675]	[ 90 570 405 675]
984.393	0.2	2377713	2377949	BlankScreen	VGS	88	4	False	lime	600	[1350 1830  405  675]	[ 90 570 405 675]
984.629	1.0	2377949	2378949	ELCue	VGS	88	4	False	lime	600	[1350 1830  405  675]	[ 90 570 405 675]
986.055	2.0	2379375	2381400	ShowFixation	ANTI	89	4	False	red	40	[1350 1830  405  675]	[ 90 570 405 675]
988.08	0.2	2381400	2381636	BlankScreen	ANTI	89	4	False	red	40	[1350 1830  405  675]	[ 90 570 405 675]
988.316	1.0	2381636	2382636	ELCue	ANTI	89	4	False	red	40	[1350 1830  405  675]	[ 90 570 405 675]
989.744	2.0	2383064	2385104	ShowFixation	VGS	90	4	False	lime	460	[1035 1515  405  675]	[405 885 405 675]
991.784	0.2	2385104	2385339	BlankScreen	VGS	90	4	False	lime	460	[1035 1515  405  675]	[405 885 405 675]
992.019	1.0	2385339	2386339	ELCue	VGS	90	4	False	lime	460	[1035 1515  405  675]	[405 885 405 675]
993.449	2.0	2386769	2388807	ShowFixation	VGS	91	4	False	lime	40	[ 90 570 405 675]	[1350 1830  405  675]
995.487	0.2	2388807	2389043	BlankScreen	VGS	91	4	False	lime	40	[ 90 570 405 675]	[1350 1830  405  675]
995.723	1.0	2389043	2390043	ELCue	VGS	91	4	False	lime	40	[ 90 570 405 675]	[1350 1830  405  675]
997.152	6.0	2390472	2396511	ShowFixation	VGS	92	4	False	lime	180	[405 885 405 675]	[1035 1515  405  675]
1003.191	0.2	2396511	2396750	BlankScreen	VGS	92	4	False	lime	180	[405 885 405 675]	[1035 1515  405  675]
1003.43	1.0	2396750	2397750	ELCue	VGS	92	4	False	lime	180	[405 885 405 675]	[1035 1515  405  675]
1004.858	6.0	2398178	2404219	ShowFixation	ANTI	93	4	False	red	180	[1035 1515  405  675]	[405 885 405 675]
1010.899	0.2	2404219	2404458	BlankScreen	ANTI	93	4	False	red	180	[1035 1515  405  675]	[405 885 405 675]
1011.138	1.0	2404458	2405458	ELCue	ANTI	93	4	False	red	180	[1035 1515  405  675]	[405 885 405 675]
1012.561	6.0	2405881	2411910	ShowFixation	VGS	94	4	False	lime	460	[1035 1515  405  675]	[405 885 405 675]
1018.59	0.2	2411910	2412149	BlankScreen	VGS	94	4	False	lime	460	[1035 1515  405  675]	[405 885 405 675]
1018.829	1.0	2412149	2413149	ELCue	VGS	94	4	False	lime	460	[1035 1515  405  675]	[405 885 405 675]
1020.254	2.0	2413574	2415601	ShowFixation	VGS	95	4	False	lime	180	[405 885 405 675]	[1035 1515  405  675]
1022.281	0.2	2415601	2415836	BlankScreen	VGS	95	4	False	lime	180	[405 885 405 675]	[1035 1515  405  675]
1022.516	1.0	2415836	2416836	ELCue	VGS	95	4	False	lime	180	[405 885 405 675]	[1035 1515  405  675]
1023.942	2.0	2417262	2419288	ShowFixation	ANTI	96	4	False	red	600	[ 90 570 405 675]	[1350 1830  405  675]
1025.968	0.2	2419288	2419523	BlankScreen	ANTI	96	4	False	red	600	[ 90 570 405 675]	[1350 1830  405  675]
1026.203	1.0	2419523	2420523	ELCue	ANTI	96	4	False	red	600	[ 90 570 405 675]	[1350 1830  405  675]
1027.629	2.0	2420949	2422974	ShowFixation	ANTI	97	4	False	red	40	[1350 1830  405  675]	[ 90 570 405 675]
1029.654	0.2	2422974	2423211	BlankScreen	ANTI	97	4	False	red	40	[1350 1830  405  675]	[ 90 570 405 675]
1029.891	1.0	2423211	2424211	ELCue	ANTI	97	4	False	red	40	[1350 1830  405  675]	[ 90 570 405 675]
1031.316	6.0	2424636	2430661	ShowFixation	ANTI	98	4	False	red	180	[1035 1515  405  675]	[405 885 405 675]
1037.341	0.2	2430661	2430901	BlankScreen	ANTI	98	4	False	red	180	[1035 1515  405  675]	[405 885 405 675]
1037.581	1.0	2430901	2431901	ELCue	ANTI	98	4	False	red	180	[1035 1515  405  675]	[405 885 405 675]
1039.006	6.0	2432326	2438352	ShowFixation	VGS	99	4	False	lime	600	[1350 1830  405  675]	[ 90 570 405 675]
1045.032	0.2	2438352	2438592	BlankScreen	VGS	99	4	False	lime	600	[1350 1830  405  675]	[ 90 570 405 675]
1045.272	1.0	2438592	2439592	ELCue	VGS	99	4	False	lime	600	[1350 1830  405  675]	[ 90 570 405 675]
1046.701	2.0	2440021	2442060	ShowFixation	ANTI	100	4	False	red	460	[405 885 405 675]	[1035 1515  405  675]
1048.74	0.2	2442060	2442295	BlankScreen	ANTI	100	4	False	red	460	[405 885 405 675]	[1035 1515  405  675]
1048.975	1.0	2442295	2443295	ELCue	ANTI	100	4	False	red	460	[405 885 405 675]	[1035 1515  405  675]
1050.405	6.0	2443725	2449764	ShowFixation	VGS	101	4	False	lime	40	[ 90 570 405 675]	[1350 1830  405  675]
1056.444	0.2	2449764	2450003	BlankScreen	VGS	101	4	False	lime	40	[ 90 570 405 675]	[1350 1830  405  675]
1056.683	1.0	2450003	2451003	ELCue	VGS	101	4	False	lime	40	[ 90 570 405 675]	[1350 1830  405  675]
1058.108	6.0	2451428	2457455	ShowFixation	ANTI	102	4	False	red	460	[405 885 405 675]	[1035 1515  405  675]
1064.135	0.2	2457455	2457694	BlankScreen	ANTI	102	4	False	red	460	[405 885 405 675]	[1035 1515  405  675]
1064.374	1.0	2457694	2458694	ELCue	ANTI	102	4	False	red	460	[405 885 405 675]	[1035 1515  405  675]
1065.797	6.0	2459117	2465145	ShowFixation	ANTI	103	4	False	red	600	[ 90 570 405 675]	[1350 1830  405  675]
1071.825	0.2	2465145	2465385	BlankScreen	ANTI	103	4	False	red	600	[ 90 570 405 675]	[1350 1830  405  675]
1072.065	1.0	2465385	2466385	ELCue	ANTI	103	4	False	red	600	[ 90 570 405 675]	[1350 1830  405  675]
1073.484	6.0	2466804	2472836	ShowFixation	VGS	104	4	False	lime	40	[ 90 570 405 675]	[1350 1830  405  675]
1079.517	0.2	2472837	2473076	BlankScreen	VGS	104	4	False	lime	40	[ 90 570 405 675]	[1350 1830  405  675]
1079.757	1.0	2473077	2474077	ELCue	VGS	104	4	False	lime	40	[ 90 570 405 675]	[1350 1830  405  675]
1081.183	6.0	2474503	2480545	ShowFixation	ANTI	105	4	False	red	40	[1350 1830  405  675]	[ 90 570 405 675]
1087.225	0.2	2480545	2480784	BlankScreen	ANTI	105	4	False	red	40	[1350 1830  405  675]	[ 90 570 405 675]
1087.464	1.0	2480784	2481784	ELCue	ANTI	105	4	False	red	40	[1350 1830  405  675]	[ 90 570 405 675]
1088.888	2.0	2482208	2484236	ShowFixation	ANTI	106	4	False	red	180	[1035 1515  405  675]	[405 885 405 675]
1090.916	0.2	2484236	2484471	BlankScreen	ANTI	106	4	False	red	180	[1035 1515  405  675]	[405 885 405 675]
1091.151	1.0	2484471	2485471	ELCue	ANTI	106	4	False	red	180	[1035 1515  405  675]	[405 885 405 675]
1092.571	2.0	2485891	2487923	ShowFixation	VGS	107	4	False	lime	180	[405 885 405 675]	[1035 1515  405  675]
1094.603	0.2	2487923	2488158	BlankScreen	VGS	107	4	False	lime	180	[405 885 405 675]	[1035 1515  405  675]
1094.838	1.0	2488158	2489158	ELCue	VGS	107	4	False	lime	180	[405 885 405 675]	[1035 1515  405  675]
1096.263	6.0	2489583	2495610	ShowFixation	VGS	108	4	False	lime	180	[405 885 405 675]	[1035 1515  405  675]
1102.29	0.2	2495610	2495849	BlankScreen	VGS	108	4	False	lime	180	[405 885 405 675]	[1035 1515  405  675]
1102.529	1.0	2495849	2496849	ELCue	VGS	108	4	False	lime	180	[405 885 405 675]	[1035 1515  405  675]
1103.957	6.0	2497277	2503317	ShowFixation	ANTI	109	4	False	red	40	[1350 1830  405  675]	[ 90 570 405 675]
1109.997	0.2	2503317	2503557	BlankScreen	ANTI	109	4	False	red	40	[1350 1830  405  675]	[ 90 570 405 675]
1110.237	1.0	2503557	2504557	ELCue	ANTI	109	4	False	red	40	[1350 1830  405  675]	[ 90 570 405 675]
1111.663	6.0	2504983	2511008	ShowFixation	ANTI	110	4	False	red	460	[405 885 405 675]	[1035 1515  405  675]
1117.688	0.2	2511008	2511248	BlankScreen	ANTI	110	4	False	red	460	[405 885 405 675]	[1035 1515  405  675]
1117.928	1.0	2511248	2512248	ELCue	ANTI	110	4	False	red	460	[405 885 405 675]	[1035 1515  405  675]
1119.356	2.0	2512676	2514716	ShowFixation	ANTI	111	4	False	red	600	[ 90 570 405 675]	[1350 1830  405  675]
1121.396	0.2	2514716	2514951	BlankScreen	ANTI	111	4	False	red	600	[ 90 570 405 675]	[1350 1830  405  675]
1121.631	1.0	2514951	2515951	ELCue	ANTI	111	4	False	red	600	[ 90 570 405 675]	[1350 1830  405  675]
1123.059	6.0	2516379	2522420	ShowFixation	VGS	112	4	False	lime	600	[1350 1830  405  675]	[ 90 570 405 675]
1129.1	0.2	2522420	2522659	BlankScreen	VGS	112	4	False	lime	600	[1350 1830  405  675]	[ 90 570 405 675]
1129.339	1.0	2522659	2523659	ELCue	VGS	112	4	False	lime	600	[1350 1830  405  675]	[ 90 570 405 675]
