onset	duration	startTime	stopTime	eventIdentifier	trial_type	trial_number	block_number	is_practice	fixation_color	cue_side	aoi_correct	aoi_incorrect
0.15	2.0	2472174	2474212	ShowFixation	VGS	1	1	True	lime	460	[1035 1515  405  675]	[405 885 405 675]
2.188	0.2	2474212	2474448	BlankScreen	VGS	1	1	True	lime	460	[1035 1515  405  675]	[405 885 405 675]
2.424	1.0	2474448	2475489	ELCue	VGS	1	1	True	lime	460	[1035 1515  405  675]	[405 885 405 675]
3.879	6.0	2475903	2482533	ShowFixation	VGS	2	1	True	lime	180	[405 885 405 675]	[1035 1515  405  675]
10.51	0.2	2482534	2482774	BlankScreen	VGS	2	1	True	lime	180	[405 885 405 675]	[1035 1515  405  675]
10.75	1.0	2482774	2483814	ELCue	VGS	2	1	True	lime	180	[405 885 405 675]	[1035 1515  405  675]
12.21	2.0	2484234	2486843	ShowFixation	VGS	3	1	True	lime	180	[405 885 405 675]	[1035 1515  405  675]
14.819	0.2	2486843	2487061	BlankScreen	VGS	3	1	True	lime	180	[405 885 405 675]	[1035 1515  405  675]
15.037	1.0	2487061	2488084	ELCue	VGS	3	1	True	lime	180	[405 885 405 675]	[1035 1515  405  675]
16.48	2.0	2488504	2491130	ShowFixation	ANTI	4	1	True	red	460	[405 885 405 675]	[1035 1515  405  675]
19.106	0.2	2491130	2491365	BlankScreen	ANTI	4	1	True	red	460	[405 885 405 675]	[1035 1515  405  675]
19.341	1.0	2491365	2492406	ELCue	ANTI	4	1	True	red	460	[405 885 405 675]	[1035 1515  405  675]
20.8	6.0	2492824	2499451	ShowFixation	ANTI	5	1	True	red	600	[ 90 570 405 675]	[1350 1830  405  675]
27.427	0.2	2499451	2499690	BlankScreen	ANTI	5	1	True	red	600	[ 90 570 405 675]	[1350 1830  405  675]
27.666	1.0	2499690	2500730	ELCue	ANTI	5	1	True	red	600	[ 90 570 405 675]	[1350 1830  405  675]
29.12	2.0	2501144	2503759	ShowFixation	VGS	6	1	True	lime	600	[1350 1830  405  675]	[ 90 570 405 675]
31.735	0.2	2503759	2503978	BlankScreen	VGS	6	1	True	lime	600	[1350 1830  405  675]	[ 90 570 405 675]
31.954	1.0	2503978	2505001	ELCue	VGS	6	1	True	lime	600	[1350 1830  405  675]	[ 90 570 405 675]
33.394	6.0	2505418	2512047	ShowFixation	ANTI	7	1	True	red	40	[1350 1830  405  675]	[ 90 570 405 675]
40.023	0.2	2512047	2512286	BlankScreen	ANTI	7	1	True	red	40	[1350 1830  405  675]	[ 90 570 405 675]
40.262	1.0	2512286	2513327	ELCue	ANTI	7	1	True	red	40	[1350 1830  405  675]	[ 90 570 405 675]
41.723	2.0	2513747	2516372	ShowFixation	ANTI	8	1	True	red	40	[1350 1830  405  675]	[ 90 570 405 675]
44.348	0.2	2516372	2516607	BlankScreen	ANTI	8	1	True	red	40	[1350 1830  405  675]	[ 90 570 405 675]
44.583	1.0	2516607	2517648	ELCue	ANTI	8	1	True	red	40	[1350 1830  405  675]	[ 90 570 405 675]
46.041	2.0	2518065	2520693	ShowFixation	VGS	9	1	True	lime	40	[ 90 570 405 675]	[1350 1830  405  675]
48.669	0.2	2520693	2520928	BlankScreen	VGS	9	1	True	lime	40	[ 90 570 405 675]	[1350 1830  405  675]
48.904	1.0	2520928	2521969	ELCue	VGS	9	1	True	lime	40	[ 90 570 405 675]	[1350 1830  405  675]
50.364	6.0	2522388	2529013	ShowFixation	VGS	10	1	True	lime	460	[1035 1515  405  675]	[405 885 405 675]
56.989	0.2	2529013	2529253	BlankScreen	VGS	10	1	True	lime	460	[1035 1515  405  675]	[405 885 405 675]
57.23	1.0	2529254	2530294	ELCue	VGS	10	1	True	lime	460	[1035 1515  405  675]	[405 885 405 675]
58.668	6.0	2530692	2537338	ShowFixation	ANTI	11	1	True	red	460	[405 885 405 675]	[1035 1515  405  675]
65.314	0.2	2537338	2537578	BlankScreen	ANTI	11	1	True	red	460	[405 885 405 675]	[1035 1515  405  675]
65.554	1.0	2537578	2538619	ELCue	ANTI	11	1	True	red	460	[405 885 405 675]	[1035 1515  405  675]
67.009	6.0	2539033	2545664	ShowFixation	ANTI	12	1	True	red	180	[1035 1515  405  675]	[405 885 405 675]
73.64	0.2	2545664	2545903	BlankScreen	ANTI	12	1	True	red	180	[1035 1515  405  675]	[405 885 405 675]
73.879	1.0	2545903	2546943	ELCue	ANTI	12	1	True	red	180	[1035 1515  405  675]	[405 885 405 675]
75.34	6.0	2547364	2553989	ShowFixation	VGS	13	1	True	lime	600	[1350 1830  405  675]	[ 90 570 405 675]
81.965	0.2	2553989	2554227	BlankScreen	VGS	13	1	True	lime	600	[1350 1830  405  675]	[ 90 570 405 675]
82.203	1.0	2554227	2555268	ELCue	VGS	13	1	True	lime	600	[1350 1830  405  675]	[ 90 570 405 675]
83.658	6.0	2555682	2562314	ShowFixation	VGS	14	1	True	lime	40	[ 90 570 405 675]	[1350 1830  405  675]
90.29	0.2	2562314	2562553	BlankScreen	VGS	14	1	True	lime	40	[ 90 570 405 675]	[1350 1830  405  675]
90.529	1.0	2562553	2563594	ELCue	VGS	14	1	True	lime	40	[ 90 570 405 675]	[1350 1830  405  675]
91.989	2.0	2564013	2566639	ShowFixation	ANTI	15	1	True	red	180	[1035 1515  405  675]	[405 885 405 675]
94.615	0.2	2566639	2566874	BlankScreen	ANTI	15	1	True	red	180	[1035 1515  405  675]	[405 885 405 675]
94.85	1.0	2566874	2567914	ELCue	ANTI	15	1	True	red	180	[1035 1515  405  675]	[405 885 405 675]
96.312	2.0	2568336	2570960	ShowFixation	ANTI	16	1	True	red	600	[ 90 570 405 675]	[1350 1830  405  675]
98.936	0.2	2570960	2571195	BlankScreen	ANTI	16	1	True	red	600	[ 90 570 405 675]	[1350 1830  405  675]
99.171	1.0	2571195	2572235	ELCue	ANTI	16	1	True	red	600	[ 90 570 405 675]	[1350 1830  405  675]
131.772	2.0	2603796	2605827	ShowFixation	VGS	17	2	False	lime	40	[ 90 570 405 675]	[1350 1830  405  675]
133.803	0.2	2605827	2606063	BlankScreen	VGS	17	2	False	lime	40	[ 90 570 405 675]	[1350 1830  405  675]
134.039	1.0	2606063	2607063	ELCue	VGS	17	2	False	lime	40	[ 90 570 405 675]	[1350 1830  405  675]
135.458	6.0	2607482	2613514	ShowFixation	VGS	18	2	False	lime	180	[405 885 405 675]	[1035 1515  405  675]
141.49	0.2	2613514	2613754	BlankScreen	VGS	18	2	False	lime	180	[405 885 405 675]	[1035 1515  405  675]
141.73	1.0	2613754	2614754	ELCue	VGS	18	2	False	lime	180	[405 885 405 675]	[1035 1515  405  675]
143.146	2.0	2615170	2617205	ShowFixation	ANTI	19	2	False	red	180	[1035 1515  405  675]	[405 885 405 675]
145.181	0.2	2617205	2617441	BlankScreen	ANTI	19	2	False	red	180	[1035 1515  405  675]	[405 885 405 675]
145.417	1.0	2617441	2618441	ELCue	ANTI	19	2	False	red	180	[1035 1515  405  675]	[405 885 405 675]
146.838	2.0	2618862	2620892	ShowFixation	ANTI	20	2	False	red	40	[1350 1830  405  675]	[ 90 570 405 675]
148.868	0.2	2620892	2621127	BlankScreen	ANTI	20	2	False	red	40	[1350 1830  405  675]	[ 90 570 405 675]
149.103	1.0	2621127	2622127	ELCue	ANTI	20	2	False	red	40	[1350 1830  405  675]	[ 90 570 405 675]
150.52	6.0	2622544	2628579	ShowFixation	ANTI	21	2	False	red	600	[ 90 570 405 675]	[1350 1830  405  675]
156.555	0.2	2628579	2628818	BlankScreen	ANTI	21	2	False	red	600	[ 90 570 405 675]	[1350 1830  405  675]
156.794	1.0	2628818	2629818	ELCue	ANTI	21	2	False	red	600	[ 90 570 405 675]	[1350 1830  405  675]
158.217	2.0	2630241	2632270	ShowFixation	VGS	22	2	False	lime	40	[ 90 570 405 675]	[1350 1830  405  675]
160.246	0.2	2632270	2632505	BlankScreen	VGS	22	2	False	lime	40	[ 90 570 405 675]	[1350 1830  405  675]
160.481	1.0	2632505	2633505	ELCue	VGS	22	2	False	lime	40	[ 90 570 405 675]	[1350 1830  405  675]
161.901	6.0	2633925	2639957	ShowFixation	ANTI	23	2	False	red	600	[ 90 570 405 675]	[1350 1830  405  675]
167.933	0.2	2639957	2640196	BlankScreen	ANTI	23	2	False	red	600	[ 90 570 405 675]	[1350 1830  405  675]
168.172	1.0	2640196	2641196	ELCue	ANTI	23	2	False	red	600	[ 90 570 405 675]	[1350 1830  405  675]
169.592	2.0	2641616	2643648	ShowFixation	ANTI	24	2	False	red	40	[1350 1830  405  675]	[ 90 570 405 675]
171.624	0.2	2643648	2643883	BlankScreen	ANTI	24	2	False	red	40	[1350 1830  405  675]	[ 90 570 405 675]
171.859	1.0	2643883	2644883	ELCue	ANTI	24	2	False	red	40	[1350 1830  405  675]	[ 90 570 405 675]
173.277	6.0	2645301	2651335	ShowFixation	ANTI	25	2	False	red	40	[1350 1830  405  675]	[ 90 570 405 675]
179.311	0.2	2651335	2651574	BlankScreen	ANTI	25	2	False	red	40	[1350 1830  405  675]	[ 90 570 405 675]
179.55	1.0	2651574	2652574	ELCue	ANTI	25	2	False	red	40	[1350 1830  405  675]	[ 90 570 405 675]
180.972	2.0	2652996	2655027	ShowFixation	ANTI	26	2	False	red	600	[ 90 570 405 675]	[1350 1830  405  675]
183.003	0.2	2655027	2655261	BlankScreen	ANTI	26	2	False	red	600	[ 90 570 405 675]	[1350 1830  405  675]
183.237	1.0	2655261	2656261	ELCue	ANTI	26	2	False	red	600	[ 90 570 405 675]	[1350 1830  405  675]
184.66	2.0	2656684	2658713	ShowFixation	ANTI	27	2	False	red	460	[405 885 405 675]	[1035 1515  405  675]
186.69	0.2	2658714	2658949	BlankScreen	ANTI	27	2	False	red	460	[405 885 405 675]	[1035 1515  405  675]
186.925	1.0	2658949	2659949	ELCue	ANTI	27	2	False	red	460	[405 885 405 675]	[1035 1515  405  675]
188.344	2.0	2660368	2662401	ShowFixation	ANTI	28	2	False	red	600	[ 90 570 405 675]	[1350 1830  405  675]
190.377	0.2	2662401	2662635	BlankScreen	ANTI	28	2	False	red	600	[ 90 570 405 675]	[1350 1830  405  675]
190.612	1.0	2662636	2663636	ELCue	ANTI	28	2	False	red	600	[ 90 570 405 675]	[1350 1830  405  675]
192.034	6.0	2664058	2670088	ShowFixation	ANTI	29	2	False	red	460	[405 885 405 675]	[1035 1515  405  675]
198.064	0.2	2670088	2670327	BlankScreen	ANTI	29	2	False	red	460	[405 885 405 675]	[1035 1515  405  675]
198.303	1.0	2670327	2671327	ELCue	ANTI	29	2	False	red	460	[405 885 405 675]	[1035 1515  405  675]
199.72	2.0	2671744	2673779	ShowFixation	VGS	30	2	False	lime	460	[1035 1515  405  675]	[405 885 405 675]
201.755	0.2	2673779	2674014	BlankScreen	VGS	30	2	False	lime	460	[1035 1515  405  675]	[405 885 405 675]
201.99	1.0	2674014	2675014	ELCue	VGS	30	2	False	lime	460	[1035 1515  405  675]	[405 885 405 675]
203.413	6.0	2675437	2681466	ShowFixation	ANTI	31	2	False	red	180	[1035 1515  405  675]	[405 885 405 675]
209.442	0.2	2681466	2681705	BlankScreen	ANTI	31	2	False	red	180	[1035 1515  405  675]	[405 885 405 675]
209.681	1.0	2681705	2682705	ELCue	ANTI	31	2	False	red	180	[1035 1515  405  675]	[405 885 405 675]
211.102	2.0	2683126	2685156	ShowFixation	ANTI	32	2	False	red	180	[1035 1515  405  675]	[405 885 405 675]
213.132	0.2	2685156	2685392	BlankScreen	ANTI	32	2	False	red	180	[1035 1515  405  675]	[405 885 405 675]
213.368	1.0	2685392	2686392	ELCue	ANTI	32	2	False	red	180	[1035 1515  405  675]	[405 885 405 675]
214.793	2.0	2686817	2688843	ShowFixation	VGS	33	2	False	lime	600	[1350 1830  405  675]	[ 90 570 405 675]
216.819	0.2	2688843	2689079	BlankScreen	VGS	33	2	False	lime	600	[1350 1830  405  675]	[ 90 570 405 675]
217.055	1.0	2689079	2690079	ELCue	VGS	33	2	False	lime	600	[1350 1830  405  675]	[ 90 570 405 675]
218.476	6.0	2690500	2696530	ShowFixation	VGS	34	2	False	lime	460	[1035 1515  405  675]	[405 885 405 675]
224.506	0.2	2696530	2696770	BlankScreen	VGS	34	2	False	lime	460	[1035 1515  405  675]	[405 885 405 675]
224.746	1.0	2696770	2697770	ELCue	VGS	34	2	False	lime	460	[1035 1515  405  675]	[405 885 405 675]
226.169	6.0	2698193	2704221	ShowFixation	VGS	35	2	False	lime	180	[405 885 405 675]	[1035 1515  405  675]
232.197	0.2	2704221	2704461	BlankScreen	VGS	35	2	False	lime	180	[405 885 405 675]	[1035 1515  405  675]
232.437	1.0	2704461	2705461	ELCue	VGS	35	2	False	lime	180	[405 885 405 675]	[1035 1515  405  675]
233.859	6.0	2705883	2711912	ShowFixation	ANTI	36	2	False	red	40	[1350 1830  405  675]	[ 90 570 405 675]
239.888	0.2	2711912	2712151	BlankScreen	ANTI	36	2	False	red	40	[1350 1830  405  675]	[ 90 570 405 675]
240.127	1.0	2712151	2713151	ELCue	ANTI	36	2	False	red	40	[1350 1830  405  675]	[ 90 570 405 675]
241.552	6.0	2713576	2719603	ShowFixation	ANTI	37	2	False	red	460	[405 885 405 675]	[1035 1515  405  675]
247.579	0.2	2719603	2719842	BlankScreen	ANTI	37	2	False	red	460	[405 885 405 675]	[1035 1515  405  675]
247.818	1.0	2719842	2720842	ELCue	ANTI	37	2	False	red	460	[405 885 405 675]	[1035 1515  405  675]
249.24	2.0	2721264	2723294	ShowFixation	VGS	38	2	False	lime	600	[1350 1830  405  675]	[ 90 570 405 675]
251.27	0.2	2723294	2723529	BlankScreen	VGS	38	2	False	lime	600	[1350 1830  405  675]	[ 90 570 405 675]
251.505	1.0	2723529	2724529	ELCue	VGS	38	2	False	lime	600	[1350 1830  405  675]	[ 90 570 405 675]
252.927	2.0	2724951	2726981	ShowFixation	VGS	39	2	False	lime	180	[405 885 405 675]	[1035 1515  405  675]
254.957	0.2	2726981	2727216	BlankScreen	VGS	39	2	False	lime	180	[405 885 405 675]	[1035 1515  405  675]
255.192	1.0	2727216	2728216	ELCue	VGS	39	2	False	lime	180	[405 885 405 675]	[1035 1515  405  675]
256.614	6.0	2728638	2734668	ShowFixation	VGS	40	2	False	lime	460	[1035 1515  405  675]	[405 885 405 675]
262.644	0.2	2734668	2734907	BlankScreen	VGS	40	2	False	lime	460	[1035 1515  405  675]	[405 885 405 675]
262.883	1.0	2734907	2735907	ELCue	VGS	40	2	False	lime	460	[1035 1515  405  675]	[405 885 405 675]
264.303	6.0	2736327	2742359	ShowFixation	VGS	41	2	False	lime	600	[1350 1830  405  675]	[ 90 570 405 675]
270.336	0.2	2742360	2742598	BlankScreen	VGS	41	2	False	lime	600	[1350 1830  405  675]	[ 90 570 405 675]
270.575	1.0	2742599	2743599	ELCue	VGS	41	2	False	lime	600	[1350 1830  405  675]	[ 90 570 405 675]
271.995	6.0	2744019	2750051	ShowFixation	VGS	42	2	False	lime	40	[ 90 570 405 675]	[1350 1830  405  675]
278.027	0.2	2750051	2750290	BlankScreen	VGS	42	2	False	lime	40	[ 90 570 405 675]	[1350 1830  405  675]
278.266	1.0	2750290	2751290	ELCue	VGS	42	2	False	lime	40	[ 90 570 405 675]	[1350 1830  405  675]
279.685	2.0	2751709	2753742	ShowFixation	ANTI	43	2	False	red	460	[405 885 405 675]	[1035 1515  405  675]
281.718	0.2	2753742	2753977	BlankScreen	ANTI	43	2	False	red	460	[405 885 405 675]	[1035 1515  405  675]
281.953	1.0	2753977	2754977	ELCue	ANTI	43	2	False	red	460	[405 885 405 675]	[1035 1515  405  675]
283.376	2.0	2755400	2757428	ShowFixation	VGS	44	2	False	lime	180	[405 885 405 675]	[1035 1515  405  675]
285.404	0.2	2757428	2757664	BlankScreen	VGS	44	2	False	lime	180	[405 885 405 675]	[1035 1515  405  675]
285.64	1.0	2757664	2758664	ELCue	VGS	44	2	False	lime	180	[405 885 405 675]	[1035 1515  405  675]
287.063	2.0	2759087	2761115	ShowFixation	VGS	45	2	False	lime	460	[1035 1515  405  675]	[405 885 405 675]
289.092	0.2	2761116	2761350	BlankScreen	VGS	45	2	False	lime	460	[1035 1515  405  675]	[405 885 405 675]
289.327	1.0	2761351	2762351	ELCue	VGS	45	2	False	lime	460	[1035 1515  405  675]	[405 885 405 675]
290.75	6.0	2762774	2768802	ShowFixation	ANTI	46	2	False	red	180	[1035 1515  405  675]	[405 885 405 675]
296.779	0.2	2768803	2769041	BlankScreen	ANTI	46	2	False	red	180	[1035 1515  405  675]	[405 885 405 675]
297.017	1.0	2769041	2770041	ELCue	ANTI	46	2	False	red	180	[1035 1515  405  675]	[405 885 405 675]
298.439	6.0	2770463	2776493	ShowFixation	VGS	47	2	False	lime	40	[ 90 570 405 675]	[1350 1830  405  675]
304.469	0.2	2776493	2776733	BlankScreen	VGS	47	2	False	lime	40	[ 90 570 405 675]	[1350 1830  405  675]
304.709	1.0	2776733	2777733	ELCue	VGS	47	2	False	lime	40	[ 90 570 405 675]	[1350 1830  405  675]
306.116	6.0	2778140	2784168	ShowFixation	VGS	48	2	False	lime	600	[1350 1830  405  675]	[ 90 570 405 675]
312.144	0.2	2784168	2784407	BlankScreen	VGS	48	2	False	lime	600	[1350 1830  405  675]	[ 90 570 405 675]
312.383	1.0	2784407	2785407	ELCue	VGS	48	2	False	lime	600	[1350 1830  405  675]	[ 90 570 405 675]
335.642	2.0	2807666	2809697	ShowFixation	ANTI	49	3	False	red	180	[1035 1515  405  675]	[405 885 405 675]
337.673	0.2	2809697	2809932	BlankScreen	ANTI	49	3	False	red	180	[1035 1515  405  675]	[405 885 405 675]
337.908	1.0	2809932	2810932	ELCue	ANTI	49	3	False	red	180	[1035 1515  405  675]	[405 885 405 675]
339.314	2.0	2811338	2813367	ShowFixation	ANTI	50	3	False	red	460	[405 885 405 675]	[1035 1515  405  675]
341.343	0.2	2813367	2813602	BlankScreen	ANTI	50	3	False	red	460	[405 885 405 675]	[1035 1515  405  675]
341.578	1.0	2813602	2814602	ELCue	ANTI	50	3	False	red	460	[405 885 405 675]	[1035 1515  405  675]
342.996	2.0	2815020	2817054	ShowFixation	VGS	51	3	False	lime	40	[ 90 570 405 675]	[1350 1830  405  675]
345.03	0.2	2817054	2817289	BlankScreen	VGS	51	3	False	lime	40	[ 90 570 405 675]	[1350 1830  405  675]
345.265	1.0	2817289	2818289	ELCue	VGS	51	3	False	lime	40	[ 90 570 405 675]	[1350 1830  405  675]
346.686	2.0	2818710	2820741	ShowFixation	ANTI	52	3	False	red	460	[405 885 405 675]	[1035 1515  405  675]
348.717	0.2	2820741	2820976	BlankScreen	ANTI	52	3	False	red	460	[405 885 405 675]	[1035 1515  405  675]
348.952	1.0	2820976	2821976	ELCue	ANTI	52	3	False	red	460	[405 885 405 675]	[1035 1515  405  675]
350.374	2.0	2822398	2824428	ShowFixation	ANTI	53	3	False	red	180	[1035 1515  405  675]	[405 885 405 675]
352.404	0.2	2824428	2824663	BlankScreen	ANTI	53	3	False	red	180	[1035 1515  405  675]	[405 885 405 675]
352.639	1.0	2824663	2825663	ELCue	ANTI	53	3	False	red	180	[1035 1515  405  675]	[405 885 405 675]
354.06	2.0	2826084	2828115	ShowFixation	ANTI	54	3	False	red	600	[ 90 570 405 675]	[1350 1830  405  675]
356.091	0.2	2828115	2828350	BlankScreen	ANTI	54	3	False	red	600	[ 90 570 405 675]	[1350 1830  405  675]
356.326	1.0	2828350	2829350	ELCue	ANTI	54	3	False	red	600	[ 90 570 405 675]	[1350 1830  405  675]
357.745	2.0	2829769	2831802	ShowFixation	VGS	55	3	False	lime	180	[405 885 405 675]	[1035 1515  405  675]
359.778	0.2	2831802	2832037	BlankScreen	VGS	55	3	False	lime	180	[405 885 405 675]	[1035 1515  405  675]
360.013	1.0	2832037	2833037	ELCue	VGS	55	3	False	lime	180	[405 885 405 675]	[1035 1515  405  675]
361.437	2.0	2833461	2835489	ShowFixation	VGS	56	3	False	lime	600	[1350 1830  405  675]	[ 90 570 405 675]
363.465	0.2	2835489	2835724	BlankScreen	VGS	56	3	False	lime	600	[1350 1830  405  675]	[ 90 570 405 675]
363.7	1.0	2835724	2836724	ELCue	VGS	56	3	False	lime	600	[1350 1830  405  675]	[ 90 570 405 675]
365.122	2.0	2837146	2839176	ShowFixation	ANTI	57	3	False	red	40	[1350 1830  405  675]	[ 90 570 405 675]
367.152	0.2	2839176	2839411	BlankScreen	ANTI	57	3	False	red	40	[1350 1830  405  675]	[ 90 570 405 675]
367.387	1.0	2839411	2840411	ELCue	ANTI	57	3	False	red	40	[1350 1830  405  675]	[ 90 570 405 675]
368.81	6.0	2840834	2846863	ShowFixation	ANTI	58	3	False	red	600	[ 90 570 405 675]	[1350 1830  405  675]
374.839	0.2	2846863	2847102	BlankScreen	ANTI	58	3	False	red	600	[ 90 570 405 675]	[1350 1830  405  675]
375.078	1.0	2847102	2848102	ELCue	ANTI	58	3	False	red	600	[ 90 570 405 675]	[1350 1830  405  675]
376.504	6.0	2848528	2854554	ShowFixation	ANTI	59	3	False	red	600	[ 90 570 405 675]	[1350 1830  405  675]
382.53	0.2	2854554	2854793	BlankScreen	ANTI	59	3	False	red	600	[ 90 570 405 675]	[1350 1830  405  675]
382.769	1.0	2854793	2855793	ELCue	ANTI	59	3	False	red	600	[ 90 570 405 675]	[1350 1830  405  675]
384.189	6.0	2856213	2862246	ShowFixation	ANTI	60	3	False	red	460	[405 885 405 675]	[1035 1515  405  675]
390.222	0.2	2862246	2862484	BlankScreen	ANTI	60	3	False	red	460	[405 885 405 675]	[1035 1515  405  675]
390.46	1.0	2862484	2863484	ELCue	ANTI	60	3	False	red	460	[405 885 405 675]	[1035 1515  405  675]
391.884	6.0	2863908	2869935	ShowFixation	VGS	61	3	False	lime	460	[1035 1515  405  675]	[405 885 405 675]
397.911	0.2	2869935	2870175	BlankScreen	VGS	61	3	False	lime	460	[1035 1515  405  675]	[405 885 405 675]
398.152	1.0	2870176	2871176	ELCue	VGS	61	3	False	lime	460	[1035 1515  405  675]	[405 885 405 675]
399.572	2.0	2871596	2873627	ShowFixation	ANTI	62	3	False	red	600	[ 90 570 405 675]	[1350 1830  405  675]
401.603	0.2	2873627	2873862	BlankScreen	ANTI	62	3	False	red	600	[ 90 570 405 675]	[1350 1830  405  675]
401.839	1.0	2873863	2874863	ELCue	ANTI	62	3	False	red	600	[ 90 570 405 675]	[1350 1830  405  675]
403.262	6.0	2875286	2881314	ShowFixation	VGS	63	3	False	lime	180	[405 885 405 675]	[1035 1515  405  675]
409.29	0.2	2881314	2881554	BlankScreen	VGS	63	3	False	lime	180	[405 885 405 675]	[1035 1515  405  675]
409.53	1.0	2881554	2882554	ELCue	VGS	63	3	False	lime	180	[405 885 405 675]	[1035 1515  405  675]
410.947	6.0	2882971	2889005	ShowFixation	ANTI	64	3	False	red	460	[405 885 405 675]	[1035 1515  405  675]
416.981	0.2	2889005	2889244	BlankScreen	ANTI	64	3	False	red	460	[405 885 405 675]	[1035 1515  405  675]
417.22	1.0	2889244	2890244	ELCue	ANTI	64	3	False	red	460	[405 885 405 675]	[1035 1515  405  675]
418.642	2.0	2890666	2892696	ShowFixation	VGS	65	3	False	lime	600	[1350 1830  405  675]	[ 90 570 405 675]
420.672	0.2	2892696	2892931	BlankScreen	VGS	65	3	False	lime	600	[1350 1830  405  675]	[ 90 570 405 675]
420.907	1.0	2892931	2893931	ELCue	VGS	65	3	False	lime	600	[1350 1830  405  675]	[ 90 570 405 675]
422.326	2.0	2894350	2896383	ShowFixation	VGS	66	3	False	lime	460	[1035 1515  405  675]	[405 885 405 675]
424.359	0.2	2896383	2896618	BlankScreen	VGS	66	3	False	lime	460	[1035 1515  405  675]	[405 885 405 675]
424.594	1.0	2896618	2897618	ELCue	VGS	66	3	False	lime	460	[1035 1515  405  675]	[405 885 405 675]
426.016	6.0	2898040	2904070	ShowFixation	VGS	67	3	False	lime	180	[405 885 405 675]	[1035 1515  405  675]
432.046	0.2	2904070	2904309	BlankScreen	VGS	67	3	False	lime	180	[405 885 405 675]	[1035 1515  405  675]
432.285	1.0	2904309	2905309	ELCue	VGS	67	3	False	lime	180	[405 885 405 675]	[1035 1515  405  675]
433.71	6.0	2905734	2911761	ShowFixation	VGS	68	3	False	lime	600	[1350 1830  405  675]	[ 90 570 405 675]
439.737	0.2	2911761	2912000	BlankScreen	VGS	68	3	False	lime	600	[1350 1830  405  675]	[ 90 570 405 675]
439.976	1.0	2912000	2913000	ELCue	VGS	68	3	False	lime	600	[1350 1830  405  675]	[ 90 570 405 675]
441.364	6.0	2913388	2919419	ShowFixation	VGS	69	3	False	lime	40	[ 90 570 405 675]	[1350 1830  405  675]
447.395	0.2	2919419	2919658	BlankScreen	VGS	69	3	False	lime	40	[ 90 570 405 675]	[1350 1830  405  675]
447.634	1.0	2919658	2920658	ELCue	VGS	69	3	False	lime	40	[ 90 570 405 675]	[1350 1830  405  675]
449.052	6.0	2921076	2927109	ShowFixation	VGS	70	3	False	lime	600	[1350 1830  405  675]	[ 90 570 405 675]
455.085	0.2	2927109	2927349	BlankScreen	VGS	70	3	False	lime	600	[1350 1830  405  675]	[ 90 570 405 675]
455.325	1.0	2927349	2928349	ELCue	VGS	70	3	False	lime	600	[1350 1830  405  675]	[ 90 570 405 675]
456.751	6.0	2928775	2934800	ShowFixation	VGS	71	3	False	lime	460	[1035 1515  405  675]	[405 885 405 675]
462.776	0.2	2934800	2935040	BlankScreen	VGS	71	3	False	lime	460	[1035 1515  405  675]	[405 885 405 675]
463.016	1.0	2935040	2936040	ELCue	VGS	71	3	False	lime	460	[1035 1515  405  675]	[405 885 405 675]
464.416	2.0	2936440	2938475	ShowFixation	VGS	72	3	False	lime	40	[ 90 570 405 675]	[1350 1830  405  675]
466.451	0.2	2938475	2938710	BlankScreen	VGS	72	3	False	lime	40	[ 90 570 405 675]	[1350 1830  405  675]
466.686	1.0	2938710	2939710	ELCue	VGS	72	3	False	lime	40	[ 90 570 405 675]	[1350 1830  405  675]
468.106	2.0	2940130	2942161	ShowFixation	ANTI	73	3	False	red	40	[1350 1830  405  675]	[ 90 570 405 675]
470.137	0.2	2942161	2942397	BlankScreen	ANTI	73	3	False	red	40	[1350 1830  405  675]	[ 90 570 405 675]
470.373	1.0	2942397	2943397	ELCue	ANTI	73	3	False	red	40	[1350 1830  405  675]	[ 90 570 405 675]
471.796	6.0	2943820	2949848	ShowFixation	VGS	74	3	False	lime	40	[ 90 570 405 675]	[1350 1830  405  675]
477.824	0.2	2949848	2950088	BlankScreen	VGS	74	3	False	lime	40	[ 90 570 405 675]	[1350 1830  405  675]
478.064	1.0	2950088	2951088	ELCue	VGS	74	3	False	lime	40	[ 90 570 405 675]	[1350 1830  405  675]
479.485	2.0	2951509	2953539	ShowFixation	VGS	75	3	False	lime	180	[405 885 405 675]	[1035 1515  405  675]
481.515	0.2	2953539	2953775	BlankScreen	VGS	75	3	False	lime	180	[405 885 405 675]	[1035 1515  405  675]
481.751	1.0	2953775	2954775	ELCue	VGS	75	3	False	lime	180	[405 885 405 675]	[1035 1515  405  675]
483.171	6.0	2955195	2961226	ShowFixation	ANTI	76	3	False	red	180	[1035 1515  405  675]	[405 885 405 675]
489.202	0.2	2961226	2961466	BlankScreen	ANTI	76	3	False	red	180	[1035 1515  405  675]	[405 885 405 675]
489.443	1.0	2961467	2962467	ELCue	ANTI	76	3	False	red	180	[1035 1515  405  675]	[405 885 405 675]
490.866	2.0	2962890	2964917	ShowFixation	VGS	77	3	False	lime	460	[1035 1515  405  675]	[405 885 405 675]
492.893	0.2	2964917	2965153	BlankScreen	VGS	77	3	False	lime	460	[1035 1515  405  675]	[405 885 405 675]
493.129	1.0	2965153	2966153	ELCue	VGS	77	3	False	lime	460	[1035 1515  405  675]	[405 885 405 675]
494.549	6.0	2966573	2972604	ShowFixation	ANTI	78	3	False	red	180	[1035 1515  405  675]	[405 885 405 675]
500.58	0.2	2972604	2972844	BlankScreen	ANTI	78	3	False	red	180	[1035 1515  405  675]	[405 885 405 675]
500.821	1.0	2972845	2973845	ELCue	ANTI	78	3	False	red	180	[1035 1515  405  675]	[405 885 405 675]
502.242	6.0	2974266	2980296	ShowFixation	ANTI	79	3	False	red	40	[1350 1830  405  675]	[ 90 570 405 675]
508.272	0.2	2980296	2980534	BlankScreen	ANTI	79	3	False	red	40	[1350 1830  405  675]	[ 90 570 405 675]
508.511	1.0	2980535	2981535	ELCue	ANTI	79	3	False	red	40	[1350 1830  405  675]	[ 90 570 405 675]
509.928	6.0	2981952	2987987	ShowFixation	ANTI	80	3	False	red	40	[1350 1830  405  675]	[ 90 570 405 675]
515.963	0.2	2987987	2988226	BlankScreen	ANTI	80	3	False	red	40	[1350 1830  405  675]	[ 90 570 405 675]
516.202	1.0	2988226	2989226	ELCue	ANTI	80	3	False	red	40	[1350 1830  405  675]	[ 90 570 405 675]
533.486	2.0	3005510	3007544	ShowFixation	ANTI	81	4	False	red	180	[1035 1515  405  675]	[405 885 405 675]
535.52	0.2	3007544	3007779	BlankScreen	ANTI	81	4	False	red	180	[1035 1515  405  675]	[405 885 405 675]
535.755	1.0	3007779	3008779	ELCue	ANTI	81	4	False	red	180	[1035 1515  405  675]	[405 885 405 675]
537.178	6.0	3009202	3015231	ShowFixation	ANTI	82	4	False	red	40	[1350 1830  405  675]	[ 90 570 405 675]
543.207	0.2	3015231	3015470	BlankScreen	ANTI	82	4	False	red	40	[1350 1830  405  675]	[ 90 570 405 675]
543.446	1.0	3015470	3016470	ELCue	ANTI	82	4	False	red	40	[1350 1830  405  675]	[ 90 570 405 675]
544.865	6.0	3016889	3022921	ShowFixation	VGS	83	4	False	lime	180	[405 885 405 675]	[1035 1515  405  675]
550.897	0.2	3022921	3023161	BlankScreen	VGS	83	4	False	lime	180	[405 885 405 675]	[1035 1515  405  675]
551.137	1.0	3023161	3024161	ELCue	VGS	83	4	False	lime	180	[405 885 405 675]	[1035 1515  405  675]
552.557	2.0	3024581	3026612	ShowFixation	VGS	84	4	False	lime	600	[1350 1830  405  675]	[ 90 570 405 675]
554.588	0.2	3026612	3026848	BlankScreen	VGS	84	4	False	lime	600	[1350 1830  405  675]	[ 90 570 405 675]
554.824	1.0	3026848	3027848	ELCue	VGS	84	4	False	lime	600	[1350 1830  405  675]	[ 90 570 405 675]
556.246	6.0	3028270	3034299	ShowFixation	VGS	85	4	False	lime	460	[1035 1515  405  675]	[405 885 405 675]
562.275	0.2	3034299	3034539	BlankScreen	VGS	85	4	False	lime	460	[1035 1515  405  675]	[405 885 405 675]
562.515	1.0	3034539	3035539	ELCue	VGS	85	4	False	lime	460	[1035 1515  405  675]	[405 885 405 675]
563.936	2.0	3035960	3037990	ShowFixation	VGS	86	4	False	lime	460	[1035 1515  405  675]	[405 885 405 675]
565.966	0.2	3037990	3038226	BlankScreen	VGS	86	4	False	lime	460	[1035 1515  405  675]	[405 885 405 675]
566.202	1.0	3038226	3039226	ELCue	VGS	86	4	False	lime	460	[1035 1515  405  675]	[405 885 405 675]
567.623	2.0	3039647	3041677	ShowFixation	ANTI	87	4	False	red	180	[1035 1515  405  675]	[405 885 405 675]
569.653	0.2	3041677	3041913	BlankScreen	ANTI	87	4	False	red	180	[1035 1515  405  675]	[405 885 405 675]
569.889	1.0	3041913	3042913	ELCue	ANTI	87	4	False	red	180	[1035 1515  405  675]	[405 885 405 675]
571.309	6.0	3043333	3049364	ShowFixation	ANTI	88	4	False	red	40	[1350 1830  405  675]	[ 90 570 405 675]
577.34	0.2	3049364	3049603	BlankScreen	ANTI	88	4	False	red	40	[1350 1830  405  675]	[ 90 570 405 675]
577.579	1.0	3049603	3050603	ELCue	ANTI	88	4	False	red	40	[1350 1830  405  675]	[ 90 570 405 675]
579.004	2.0	3051028	3053055	ShowFixation	ANTI	89	4	False	red	600	[ 90 570 405 675]	[1350 1830  405  675]
581.031	0.2	3053055	3053290	BlankScreen	ANTI	89	4	False	red	600	[ 90 570 405 675]	[1350 1830  405  675]
581.266	1.0	3053290	3054290	ELCue	ANTI	89	4	False	red	600	[ 90 570 405 675]	[1350 1830  405  675]
582.687	2.0	3054711	3056742	ShowFixation	VGS	90	4	False	lime	180	[405 885 405 675]	[1035 1515  405  675]
584.718	0.2	3056742	3056977	BlankScreen	VGS	90	4	False	lime	180	[405 885 405 675]	[1035 1515  405  675]
584.953	1.0	3056977	3057977	ELCue	VGS	90	4	False	lime	180	[405 885 405 675]	[1035 1515  405  675]
586.374	2.0	3058398	3060429	ShowFixation	ANTI	91	4	False	red	40	[1350 1830  405  675]	[ 90 570 405 675]
588.405	0.2	3060429	3060664	BlankScreen	ANTI	91	4	False	red	40	[1350 1830  405  675]	[ 90 570 405 675]
588.64	1.0	3060664	3061664	ELCue	ANTI	91	4	False	red	40	[1350 1830  405  675]	[ 90 570 405 675]
590.062	6.0	3062086	3068116	ShowFixation	ANTI	92	4	False	red	460	[405 885 405 675]	[1035 1515  405  675]
596.092	0.2	3068116	3068355	BlankScreen	ANTI	92	4	False	red	460	[405 885 405 675]	[1035 1515  405  675]
596.331	1.0	3068355	3069355	ELCue	ANTI	92	4	False	red	460	[405 885 405 675]	[1035 1515  405  675]
597.753	2.0	3069777	3071807	ShowFixation	ANTI	93	4	False	red	460	[405 885 405 675]	[1035 1515  405  675]
599.783	0.2	3071807	3072042	BlankScreen	ANTI	93	4	False	red	460	[405 885 405 675]	[1035 1515  405  675]
600.018	1.0	3072042	3073042	ELCue	ANTI	93	4	False	red	460	[405 885 405 675]	[1035 1515  405  675]
601.425	2.0	3073449	3075477	ShowFixation	VGS	94	4	False	lime	180	[405 885 405 675]	[1035 1515  405  675]
603.453	0.2	3075477	3075712	BlankScreen	VGS	94	4	False	lime	180	[405 885 405 675]	[1035 1515  405  675]
603.688	1.0	3075712	3076712	ELCue	VGS	94	4	False	lime	180	[405 885 405 675]	[1035 1515  405  675]
605.108	6.0	3077132	3083165	ShowFixation	VGS	95	4	False	lime	40	[ 90 570 405 675]	[1350 1830  405  675]
611.141	0.2	3083165	3083404	BlankScreen	VGS	95	4	False	lime	40	[ 90 570 405 675]	[1350 1830  405  675]
611.38	1.0	3083404	3084404	ELCue	VGS	95	4	False	lime	40	[ 90 570 405 675]	[1350 1830  405  675]
612.802	2.0	3084826	3086855	ShowFixation	VGS	96	4	False	lime	460	[1035 1515  405  675]	[405 885 405 675]
614.831	0.2	3086855	3087091	BlankScreen	VGS	96	4	False	lime	460	[1035 1515  405  675]	[405 885 405 675]
615.067	1.0	3087091	3088091	ELCue	VGS	96	4	False	lime	460	[1035 1515  405  675]	[405 885 405 675]
616.492	6.0	3088516	3094543	ShowFixation	ANTI	97	4	False	red	460	[405 885 405 675]	[1035 1515  405  675]
622.519	0.2	3094543	3094781	BlankScreen	ANTI	97	4	False	red	460	[405 885 405 675]	[1035 1515  405  675]
622.757	1.0	3094781	3095781	ELCue	ANTI	97	4	False	red	460	[405 885 405 675]	[1035 1515  405  675]
624.144	6.0	3096168	3102201	ShowFixation	VGS	98	4	False	lime	180	[405 885 405 675]	[1035 1515  405  675]
630.177	0.2	3102201	3102440	BlankScreen	VGS	98	4	False	lime	180	[405 885 405 675]	[1035 1515  405  675]
630.416	1.0	3102440	3103440	ELCue	VGS	98	4	False	lime	180	[405 885 405 675]	[1035 1515  405  675]
631.833	6.0	3103857	3109891	ShowFixation	ANTI	99	4	False	red	180	[1035 1515  405  675]	[405 885 405 675]
637.867	0.2	3109891	3110131	BlankScreen	ANTI	99	4	False	red	180	[1035 1515  405  675]	[405 885 405 675]
638.107	1.0	3110131	3111131	ELCue	ANTI	99	4	False	red	180	[1035 1515  405  675]	[405 885 405 675]
639.528	2.0	3111552	3113582	ShowFixation	ANTI	100	4	False	red	460	[405 885 405 675]	[1035 1515  405  675]
641.558	0.2	3113582	3113818	BlankScreen	ANTI	100	4	False	red	460	[405 885 405 675]	[1035 1515  405  675]
641.794	1.0	3113818	3114818	ELCue	ANTI	100	4	False	red	460	[405 885 405 675]	[1035 1515  405  675]
643.214	6.0	3115238	3121269	ShowFixation	ANTI	101	4	False	red	180	[1035 1515  405  675]	[405 885 405 675]
649.245	0.2	3121269	3121509	BlankScreen	ANTI	101	4	False	red	180	[1035 1515  405  675]	[405 885 405 675]
649.485	1.0	3121509	3122509	ELCue	ANTI	101	4	False	red	180	[1035 1515  405  675]	[405 885 405 675]
650.902	2.0	3122926	3124960	ShowFixation	ANTI	102	4	False	red	600	[ 90 570 405 675]	[1350 1830  405  675]
652.936	0.2	3124960	3125196	BlankScreen	ANTI	102	4	False	red	600	[ 90 570 405 675]	[1350 1830  405  675]
653.172	1.0	3125196	3126196	ELCue	ANTI	102	4	False	red	600	[ 90 570 405 675]	[1350 1830  405  675]
654.594	2.0	3126618	3128647	ShowFixation	ANTI	103	4	False	red	40	[1350 1830  405  675]	[ 90 570 405 675]
656.623	0.2	3128647	3128883	BlankScreen	ANTI	103	4	False	red	40	[1350 1830  405  675]	[ 90 570 405 675]
656.859	1.0	3128883	3129883	ELCue	ANTI	103	4	False	red	40	[1350 1830  405  675]	[ 90 570 405 675]
658.277	6.0	3130301	3136334	ShowFixation	ANTI	104	4	False	red	600	[ 90 570 405 675]	[1350 1830  405  675]
664.31	0.2	3136334	3136573	BlankScreen	ANTI	104	4	False	red	600	[ 90 570 405 675]	[1350 1830  405  675]
664.549	1.0	3136573	3137573	ELCue	ANTI	104	4	False	red	600	[ 90 570 405 675]	[1350 1830  405  675]
665.966	2.0	3137990	3140025	ShowFixation	VGS	105	4	False	lime	600	[1350 1830  405  675]	[ 90 570 405 675]
668.001	0.2	3140025	3140260	BlankScreen	VGS	105	4	False	lime	600	[1350 1830  405  675]	[ 90 570 405 675]
668.236	1.0	3140260	3141260	ELCue	VGS	105	4	False	lime	600	[1350 1830  405  675]	[ 90 570 405 675]
669.659	6.0	3141683	3147712	ShowFixation	ANTI	106	4	False	red	600	[ 90 570 405 675]	[1350 1830  405  675]
675.688	0.2	3147712	3147951	BlankScreen	ANTI	106	4	False	red	600	[ 90 570 405 675]	[1350 1830  405  675]
675.927	1.0	3147951	3148951	ELCue	ANTI	106	4	False	red	600	[ 90 570 405 675]	[1350 1830  405  675]
677.347	2.0	3149371	3151403	ShowFixation	VGS	107	4	False	lime	40	[ 90 570 405 675]	[1350 1830  405  675]
679.379	0.2	3151403	3151638	BlankScreen	VGS	107	4	False	lime	40	[ 90 570 405 675]	[1350 1830  405  675]
679.614	1.0	3151638	3152638	ELCue	VGS	107	4	False	lime	40	[ 90 570 405 675]	[1350 1830  405  675]
681.035	6.0	3153059	3159090	ShowFixation	VGS	108	4	False	lime	460	[1035 1515  405  675]	[405 885 405 675]
687.066	0.2	3159090	3159329	BlankScreen	VGS	108	4	False	lime	460	[1035 1515  405  675]	[405 885 405 675]
687.305	1.0	3159329	3160329	ELCue	VGS	108	4	False	lime	460	[1035 1515  405  675]	[405 885 405 675]
688.729	6.0	3160753	3166781	ShowFixation	VGS	109	4	False	lime	600	[1350 1830  405  675]	[ 90 570 405 675]
694.757	0.2	3166781	3167020	BlankScreen	VGS	109	4	False	lime	600	[1350 1830  405  675]	[ 90 570 405 675]
694.996	1.0	3167020	3168020	ELCue	VGS	109	4	False	lime	600	[1350 1830  405  675]	[ 90 570 405 675]
696.42	6.0	3168444	3174472	ShowFixation	VGS	110	4	False	lime	600	[1350 1830  405  675]	[ 90 570 405 675]
702.448	0.2	3174472	3174711	BlankScreen	VGS	110	4	False	lime	600	[1350 1830  405  675]	[ 90 570 405 675]
702.687	1.0	3174711	3175711	ELCue	VGS	110	4	False	lime	600	[1350 1830  405  675]	[ 90 570 405 675]
704.106	6.0	3176130	3182163	ShowFixation	VGS	111	4	False	lime	40	[ 90 570 405 675]	[1350 1830  405  675]
710.139	0.2	3182163	3182402	BlankScreen	VGS	111	4	False	lime	40	[ 90 570 405 675]	[1350 1830  405  675]
710.378	1.0	3182402	3183402	ELCue	VGS	111	4	False	lime	40	[ 90 570 405 675]	[1350 1830  405  675]
711.802	2.0	3183826	3185853	ShowFixation	VGS	112	4	False	lime	40	[ 90 570 405 675]	[1350 1830  405  675]
713.829	0.2	3185853	3186089	BlankScreen	VGS	112	4	False	lime	40	[ 90 570 405 675]	[1350 1830  405  675]
714.065	1.0	3186089	3187089	ELCue	VGS	112	4	False	lime	40	[ 90 570 405 675]	[1350 1830  405  675]
