onset	duration	startTime	stopTime	eventIdentifier	trial_type	trial_number	block_number	is_practice	fixation_color	cue_side	aoi_correct	aoi_incorrect
0.143	2.0	5336457	5338495	ShowFixation	VGS	1	1	True	lime	180	[405 885 405 675]	[1035 1515  405  675]
2.181	0.2	5338495	5338731	BlankScreen	VGS	1	1	True	lime	180	[405 885 405 675]	[1035 1515  405  675]
2.417	1.0	5338731	5339771	ELCue	VGS	1	1	True	lime	180	[405 885 405 675]	[1035 1515  405  675]
3.89	6.0	5340204	5346816	ShowFixation	ANTI	2	1	True	red	40	[1350 1830  405  675]	[ 90 570 405 675]
10.502	0.2	5346816	5347055	BlankScreen	ANTI	2	1	True	red	40	[1350 1830  405  675]	[ 90 570 405 675]
10.741	1.0	5347055	5348095	ELCue	ANTI	2	1	True	red	40	[1350 1830  405  675]	[ 90 570 405 675]
12.197	2.0	5348511	5351124	ShowFixation	ANTI	3	1	True	red	460	[405 885 405 675]	[1035 1515  405  675]
14.81	0.2	5351124	5351343	BlankScreen	ANTI	3	1	True	red	460	[405 885 405 675]	[1035 1515  405  675]
15.029	1.0	5351343	5352366	ELCue	ANTI	3	1	True	red	460	[405 885 405 675]	[1035 1515  405  675]
16.464	2.0	5352778	5355412	ShowFixation	ANTI	4	1	True	red	40	[1350 1830  405  675]	[ 90 570 405 675]
19.098	0.2	5355412	5355647	BlankScreen	ANTI	4	1	True	red	40	[1350 1830  405  675]	[ 90 570 405 675]
19.333	1.0	5355647	5356688	ELCue	ANTI	4	1	True	red	40	[1350 1830  405  675]	[ 90 570 405 675]
20.788	6.0	5357102	5363733	ShowFixation	ANTI	5	1	True	red	600	[ 90 570 405 675]	[1350 1830  405  675]
27.419	0.2	5363733	5363972	BlankScreen	ANTI	5	1	True	red	600	[ 90 570 405 675]	[1350 1830  405  675]
27.658	1.0	5363972	5365013	ELCue	ANTI	5	1	True	red	600	[ 90 570 405 675]	[1350 1830  405  675]
29.115	2.0	5365429	5368058	ShowFixation	ANTI	6	1	True	red	180	[1035 1515  405  675]	[405 885 405 675]
31.744	0.2	5368058	5368293	BlankScreen	ANTI	6	1	True	red	180	[1035 1515  405  675]	[405 885 405 675]
31.979	1.0	5368293	5369334	ELCue	ANTI	6	1	True	red	180	[1035 1515  405  675]	[405 885 405 675]
33.436	2.0	5369750	5372379	ShowFixation	VGS	7	1	True	lime	460	[1035 1515  405  675]	[405 885 405 675]
36.065	0.2	5372379	5372614	BlankScreen	VGS	7	1	True	lime	460	[1035 1515  405  675]	[405 885 405 675]
36.3	1.0	5372614	5373655	ELCue	VGS	7	1	True	lime	460	[1035 1515  405  675]	[405 885 405 675]
37.76	6.0	5374074	5380700	ShowFixation	ANTI	8	1	True	red	180	[1035 1515  405  675]	[405 885 405 675]
44.386	0.2	5380700	5380939	BlankScreen	ANTI	8	1	True	red	180	[1035 1515  405  675]	[405 885 405 675]
44.625	1.0	5380939	5381980	ELCue	ANTI	8	1	True	red	180	[1035 1515  405  675]	[405 885 405 675]
46.085	2.0	5382399	5385024	ShowFixation	ANTI	9	1	True	red	600	[ 90 570 405 675]	[1350 1830  405  675]
48.71	0.2	5385024	5385260	BlankScreen	ANTI	9	1	True	red	600	[ 90 570 405 675]	[1350 1830  405  675]
48.946	1.0	5385260	5386301	ELCue	ANTI	9	1	True	red	600	[ 90 570 405 675]	[1350 1830  405  675]
50.404	2.0	5386718	5389345	ShowFixation	VGS	10	1	True	lime	40	[ 90 570 405 675]	[1350 1830  405  675]
53.031	0.2	5389345	5389581	BlankScreen	VGS	10	1	True	lime	40	[ 90 570 405 675]	[1350 1830  405  675]
53.267	1.0	5389581	5390621	ELCue	VGS	10	1	True	lime	40	[ 90 570 405 675]	[1350 1830  405  675]
54.727	6.0	5391041	5397650	ShowFixation	VGS	11	1	True	lime	40	[ 90 570 405 675]	[1350 1830  405  675]
61.336	0.2	5397650	5397889	BlankScreen	VGS	11	1	True	lime	40	[ 90 570 405 675]	[1350 1830  405  675]
61.575	1.0	5397889	5398930	ELCue	VGS	11	1	True	lime	40	[ 90 570 405 675]	[1350 1830  405  675]
63.035	2.0	5399349	5401974	ShowFixation	VGS	12	1	True	lime	600	[1350 1830  405  675]	[ 90 570 405 675]
65.66	0.2	5401974	5402210	BlankScreen	VGS	12	1	True	lime	600	[1350 1830  405  675]	[ 90 570 405 675]
65.896	1.0	5402210	5403251	ELCue	VGS	12	1	True	lime	600	[1350 1830  405  675]	[ 90 570 405 675]
67.406	6.0	5403720	5410295	ShowFixation	VGS	13	1	True	lime	460	[1035 1515  405  675]	[405 885 405 675]
73.981	0.2	5410295	5410535	BlankScreen	VGS	13	1	True	lime	460	[1035 1515  405  675]	[405 885 405 675]
74.221	1.0	5410535	5411576	ELCue	VGS	13	1	True	lime	460	[1035 1515  405  675]	[405 885 405 675]
75.683	6.0	5411997	5418620	ShowFixation	ANTI	14	1	True	red	460	[405 885 405 675]	[1035 1515  405  675]
82.307	0.2	5418621	5418860	BlankScreen	ANTI	14	1	True	red	460	[405 885 405 675]	[1035 1515  405  675]
82.546	1.0	5418860	5419901	ELCue	ANTI	14	1	True	red	460	[405 885 405 675]	[1035 1515  405  675]
84.001	6.0	5420315	5426946	ShowFixation	VGS	15	1	True	lime	180	[405 885 405 675]	[1035 1515  405  675]
90.632	0.2	5426946	5427185	BlankScreen	VGS	15	1	True	lime	180	[405 885 405 675]	[1035 1515  405  675]
90.871	1.0	5427185	5428226	ELCue	VGS	15	1	True	lime	180	[405 885 405 675]	[1035 1515  405  675]
92.327	6.0	5428641	5435271	ShowFixation	VGS	16	1	True	lime	600	[1350 1830  405  675]	[ 90 570 405 675]
98.957	0.2	5435271	5435510	BlankScreen	VGS	16	1	True	lime	600	[1350 1830  405  675]	[ 90 570 405 675]
99.196	1.0	5435510	5436550	ELCue	VGS	16	1	True	lime	600	[1350 1830  405  675]	[ 90 570 405 675]
127.961	2.0	5464275	5466306	ShowFixation	ANTI	17	2	False	red	460	[405 885 405 675]	[1035 1515  405  675]
129.992	0.2	5466306	5466541	BlankScreen	ANTI	17	2	False	red	460	[405 885 405 675]	[1035 1515  405  675]
130.227	1.0	5466541	5467541	ELCue	ANTI	17	2	False	red	460	[405 885 405 675]	[1035 1515  405  675]
131.721	6.0	5468035	5474076	ShowFixation	VGS	18	2	False	lime	460	[1035 1515  405  675]	[405 885 405 675]
137.762	0.2	5474076	5474315	BlankScreen	VGS	18	2	False	lime	460	[1035 1515  405  675]	[405 885 405 675]
138.001	1.0	5474315	5475315	ELCue	VGS	18	2	False	lime	460	[1035 1515  405  675]	[405 885 405 675]
139.384	2.0	5475698	5477734	ShowFixation	VGS	19	2	False	lime	40	[ 90 570 405 675]	[1350 1830  405  675]
141.42	0.2	5477734	5477969	BlankScreen	VGS	19	2	False	lime	40	[ 90 570 405 675]	[1350 1830  405  675]
141.655	1.0	5477969	5478969	ELCue	VGS	19	2	False	lime	40	[ 90 570 405 675]	[1350 1830  405  675]
143.073	6.0	5479387	5485421	ShowFixation	ANTI	20	2	False	red	460	[405 885 405 675]	[1035 1515  405  675]
149.107	0.2	5485421	5485660	BlankScreen	ANTI	20	2	False	red	460	[405 885 405 675]	[1035 1515  405  675]
149.346	1.0	5485660	5486660	ELCue	ANTI	20	2	False	red	460	[405 885 405 675]	[1035 1515  405  675]
150.767	6.0	5487081	5493111	ShowFixation	VGS	21	2	False	lime	180	[405 885 405 675]	[1035 1515  405  675]
156.797	0.2	5493111	5493351	BlankScreen	VGS	21	2	False	lime	180	[405 885 405 675]	[1035 1515  405  675]
157.037	1.0	5493351	5494351	ELCue	VGS	21	2	False	lime	180	[405 885 405 675]	[1035 1515  405  675]
158.454	2.0	5494768	5496802	ShowFixation	VGS	22	2	False	lime	180	[405 885 405 675]	[1035 1515  405  675]
160.488	0.2	5496802	5497038	BlankScreen	VGS	22	2	False	lime	180	[405 885 405 675]	[1035 1515  405  675]
160.724	1.0	5497038	5498038	ELCue	VGS	22	2	False	lime	180	[405 885 405 675]	[1035 1515  405  675]
162.141	2.0	5498455	5500489	ShowFixation	ANTI	23	2	False	red	40	[1350 1830  405  675]	[ 90 570 405 675]
164.175	0.2	5500489	5500725	BlankScreen	ANTI	23	2	False	red	40	[1350 1830  405  675]	[ 90 570 405 675]
164.411	1.0	5500725	5501725	ELCue	ANTI	23	2	False	red	40	[1350 1830  405  675]	[ 90 570 405 675]
165.828	2.0	5502142	5504176	ShowFixation	ANTI	24	2	False	red	600	[ 90 570 405 675]	[1350 1830  405  675]
167.862	0.2	5504176	5504412	BlankScreen	ANTI	24	2	False	red	600	[ 90 570 405 675]	[1350 1830  405  675]
168.098	1.0	5504412	5505412	ELCue	ANTI	24	2	False	red	600	[ 90 570 405 675]	[1350 1830  405  675]
169.516	2.0	5505830	5507863	ShowFixation	ANTI	25	2	False	red	180	[1035 1515  405  675]	[405 885 405 675]
171.549	0.2	5507863	5508099	BlankScreen	ANTI	25	2	False	red	180	[1035 1515  405  675]	[405 885 405 675]
171.785	1.0	5508099	5509099	ELCue	ANTI	25	2	False	red	180	[1035 1515  405  675]	[405 885 405 675]
173.208	2.0	5509522	5511550	ShowFixation	ANTI	26	2	False	red	180	[1035 1515  405  675]	[405 885 405 675]
175.236	0.2	5511550	5511786	BlankScreen	ANTI	26	2	False	red	180	[1035 1515  405  675]	[405 885 405 675]
175.472	1.0	5511786	5512786	ELCue	ANTI	26	2	False	red	180	[1035 1515  405  675]	[405 885 405 675]
176.895	6.0	5513209	5519237	ShowFixation	ANTI	27	2	False	red	180	[1035 1515  405  675]	[405 885 405 675]
182.923	0.2	5519237	5519477	BlankScreen	ANTI	27	2	False	red	180	[1035 1515  405  675]	[405 885 405 675]
183.163	1.0	5519477	5520477	ELCue	ANTI	27	2	False	red	180	[1035 1515  405  675]	[405 885 405 675]
184.581	2.0	5520895	5522928	ShowFixation	VGS	28	2	False	lime	180	[405 885 405 675]	[1035 1515  405  675]
186.614	0.2	5522928	5523163	BlankScreen	VGS	28	2	False	lime	180	[405 885 405 675]	[1035 1515  405  675]
186.849	1.0	5523163	5524163	ELCue	VGS	28	2	False	lime	180	[405 885 405 675]	[1035 1515  405  675]
188.272	6.0	5524586	5530615	ShowFixation	ANTI	29	2	False	red	180	[1035 1515  405  675]	[405 885 405 675]
194.301	0.2	5530615	5530854	BlankScreen	ANTI	29	2	False	red	180	[1035 1515  405  675]	[405 885 405 675]
194.54	1.0	5530854	5531854	ELCue	ANTI	29	2	False	red	180	[1035 1515  405  675]	[405 885 405 675]
195.96	6.0	5532274	5538306	ShowFixation	VGS	30	2	False	lime	180	[405 885 405 675]	[1035 1515  405  675]
201.992	0.2	5538306	5538545	BlankScreen	VGS	30	2	False	lime	180	[405 885 405 675]	[1035 1515  405  675]
202.231	1.0	5538545	5539545	ELCue	VGS	30	2	False	lime	180	[405 885 405 675]	[1035 1515  405  675]
203.648	6.0	5539962	5545997	ShowFixation	ANTI	31	2	False	red	600	[ 90 570 405 675]	[1350 1830  405  675]
209.683	0.2	5545997	5546236	BlankScreen	ANTI	31	2	False	red	600	[ 90 570 405 675]	[1350 1830  405  675]
209.922	1.0	5546236	5547236	ELCue	ANTI	31	2	False	red	600	[ 90 570 405 675]	[1350 1830  405  675]
211.341	2.0	5547655	5549688	ShowFixation	ANTI	32	2	False	red	600	[ 90 570 405 675]	[1350 1830  405  675]
213.374	0.2	5549688	5549923	BlankScreen	ANTI	32	2	False	red	600	[ 90 570 405 675]	[1350 1830  405  675]
213.609	1.0	5549923	5550923	ELCue	ANTI	32	2	False	red	600	[ 90 570 405 675]	[1350 1830  405  675]
215.031	2.0	5551345	5553376	ShowFixation	ANTI	33	2	False	red	40	[1350 1830  405  675]	[ 90 570 405 675]
217.062	0.2	5553376	5553610	BlankScreen	ANTI	33	2	False	red	40	[1350 1830  405  675]	[ 90 570 405 675]
217.296	1.0	5553610	5554610	ELCue	ANTI	33	2	False	red	40	[1350 1830  405  675]	[ 90 570 405 675]
218.716	6.0	5555030	5561062	ShowFixation	ANTI	34	2	False	red	40	[1350 1830  405  675]	[ 90 570 405 675]
224.749	0.2	5561063	5561301	BlankScreen	ANTI	34	2	False	red	40	[1350 1830  405  675]	[ 90 570 405 675]
224.987	1.0	5561301	5562301	ELCue	ANTI	34	2	False	red	40	[1350 1830  405  675]	[ 90 570 405 675]
226.412	6.0	5562726	5568753	ShowFixation	ANTI	35	2	False	red	460	[405 885 405 675]	[1035 1515  405  675]
232.44	0.2	5568754	5568992	BlankScreen	ANTI	35	2	False	red	460	[405 885 405 675]	[1035 1515  405  675]
232.678	1.0	5568992	5569992	ELCue	ANTI	35	2	False	red	460	[405 885 405 675]	[1035 1515  405  675]
234.101	6.0	5570415	5576445	ShowFixation	VGS	36	2	False	lime	600	[1350 1830  405  675]	[ 90 570 405 675]
240.131	0.2	5576445	5576684	BlankScreen	VGS	36	2	False	lime	600	[1350 1830  405  675]	[ 90 570 405 675]
240.37	1.0	5576684	5577684	ELCue	VGS	36	2	False	lime	600	[1350 1830  405  675]	[ 90 570 405 675]
241.79	2.0	5578104	5580136	ShowFixation	VGS	37	2	False	lime	460	[1035 1515  405  675]	[405 885 405 675]
243.822	0.2	5580136	5580371	BlankScreen	VGS	37	2	False	lime	460	[1035 1515  405  675]	[405 885 405 675]
244.057	1.0	5580371	5581371	ELCue	VGS	37	2	False	lime	460	[1035 1515  405  675]	[405 885 405 675]
245.476	6.0	5581790	5587823	ShowFixation	VGS	38	2	False	lime	40	[ 90 570 405 675]	[1350 1830  405  675]
251.509	0.2	5587823	5588062	BlankScreen	VGS	38	2	False	lime	40	[ 90 570 405 675]	[1350 1830  405  675]
251.748	1.0	5588062	5589062	ELCue	VGS	38	2	False	lime	40	[ 90 570 405 675]	[1350 1830  405  675]
253.167	2.0	5589481	5591513	ShowFixation	VGS	39	2	False	lime	600	[1350 1830  405  675]	[ 90 570 405 675]
255.199	0.2	5591513	5591749	BlankScreen	VGS	39	2	False	lime	600	[1350 1830  405  675]	[ 90 570 405 675]
255.435	1.0	5591749	5592749	ELCue	VGS	39	2	False	lime	600	[1350 1830  405  675]	[ 90 570 405 675]
256.821	6.0	5593135	5599167	ShowFixation	VGS	40	2	False	lime	600	[1350 1830  405  675]	[ 90 570 405 675]
262.853	0.2	5599167	5599406	BlankScreen	VGS	40	2	False	lime	600	[1350 1830  405  675]	[ 90 570 405 675]
263.092	1.0	5599406	5600406	ELCue	VGS	40	2	False	lime	600	[1350 1830  405  675]	[ 90 570 405 675]
264.513	2.0	5600827	5602858	ShowFixation	VGS	41	2	False	lime	600	[1350 1830  405  675]	[ 90 570 405 675]
266.544	0.2	5602858	5603093	BlankScreen	VGS	41	2	False	lime	600	[1350 1830  405  675]	[ 90 570 405 675]
266.779	1.0	5603093	5604093	ELCue	VGS	41	2	False	lime	600	[1350 1830  405  675]	[ 90 570 405 675]
268.201	2.0	5604515	5606545	ShowFixation	ANTI	42	2	False	red	460	[405 885 405 675]	[1035 1515  405  675]
270.231	0.2	5606545	5606780	BlankScreen	ANTI	42	2	False	red	460	[405 885 405 675]	[1035 1515  405  675]
270.466	1.0	5606780	5607780	ELCue	ANTI	42	2	False	red	460	[405 885 405 675]	[1035 1515  405  675]
271.888	6.0	5608202	5614232	ShowFixation	VGS	43	2	False	lime	460	[1035 1515  405  675]	[405 885 405 675]
277.918	0.2	5614232	5614471	BlankScreen	VGS	43	2	False	lime	460	[1035 1515  405  675]	[405 885 405 675]
278.157	1.0	5614471	5615471	ELCue	VGS	43	2	False	lime	460	[1035 1515  405  675]	[405 885 405 675]
279.578	6.0	5615892	5621923	ShowFixation	VGS	44	2	False	lime	40	[ 90 570 405 675]	[1350 1830  405  675]
285.609	0.2	5621923	5622162	BlankScreen	VGS	44	2	False	lime	40	[ 90 570 405 675]	[1350 1830  405  675]
285.848	1.0	5622162	5623162	ELCue	VGS	44	2	False	lime	40	[ 90 570 405 675]	[1350 1830  405  675]
287.271	6.0	5623585	5629614	ShowFixation	ANTI	45	2	False	red	600	[ 90 570 405 675]	[1350 1830  405  675]
293.3	0.2	5629614	5629853	BlankScreen	ANTI	45	2	False	red	600	[ 90 570 405 675]	[1350 1830  405  675]
293.539	1.0	5629853	5630853	ELCue	ANTI	45	2	False	red	600	[ 90 570 405 675]	[1350 1830  405  675]
294.958	6.0	5631272	5637305	ShowFixation	ANTI	46	2	False	red	40	[1350 1830  405  675]	[ 90 570 405 675]
300.991	0.2	5637305	5637544	BlankScreen	ANTI	46	2	False	red	40	[1350 1830  405  675]	[ 90 570 405 675]
301.23	1.0	5637544	5638544	ELCue	ANTI	46	2	False	red	40	[1350 1830  405  675]	[ 90 570 405 675]
302.613	2.0	5638927	5640962	ShowFixation	VGS	47	2	False	lime	40	[ 90 570 405 675]	[1350 1830  405  675]
304.648	0.2	5640962	5641198	BlankScreen	VGS	47	2	False	lime	40	[ 90 570 405 675]	[1350 1830  405  675]
304.884	1.0	5641198	5642198	ELCue	VGS	47	2	False	lime	40	[ 90 570 405 675]	[1350 1830  405  675]
306.304	2.0	5642618	5644649	ShowFixation	VGS	48	2	False	lime	460	[1035 1515  405  675]	[405 885 405 675]
308.335	0.2	5644649	5644885	BlankScreen	VGS	48	2	False	lime	460	[1035 1515  405  675]	[405 885 405 675]
308.571	1.0	5644885	5645885	ELCue	VGS	48	2	False	lime	460	[1035 1515  405  675]	[405 885 405 675]
402.842	6.0	5739156	5745195	ShowFixation	ANTI	49	3	False	red	460	[405 885 405 675]	[1035 1515  405  675]
408.881	0.2	5745195	5745435	BlankScreen	ANTI	49	3	False	red	460	[405 885 405 675]	[1035 1515  405  675]
409.121	1.0	5745435	5746435	ELCue	ANTI	49	3	False	red	460	[405 885 405 675]	[1035 1515  405  675]
410.542	6.0	5746856	5752886	ShowFixation	VGS	50	3	False	lime	40	[ 90 570 405 675]	[1350 1830  405  675]
416.572	0.2	5752886	5753126	BlankScreen	VGS	50	3	False	lime	40	[ 90 570 405 675]	[1350 1830  405  675]
416.812	1.0	5753126	5754126	ELCue	VGS	50	3	False	lime	40	[ 90 570 405 675]	[1350 1830  405  675]
418.23	6.0	5754544	5760577	ShowFixation	VGS	51	3	False	lime	40	[ 90 570 405 675]	[1350 1830  405  675]
424.263	0.2	5760577	5760817	BlankScreen	VGS	51	3	False	lime	40	[ 90 570 405 675]	[1350 1830  405  675]
424.503	1.0	5760817	5761817	ELCue	VGS	51	3	False	lime	40	[ 90 570 405 675]	[1350 1830  405  675]
425.925	6.0	5762239	5768268	ShowFixation	VGS	52	3	False	lime	460	[1035 1515  405  675]	[405 885 405 675]
431.954	0.2	5768268	5768507	BlankScreen	VGS	52	3	False	lime	460	[1035 1515  405  675]	[405 885 405 675]
432.193	1.0	5768507	5769507	ELCue	VGS	52	3	False	lime	460	[1035 1515  405  675]	[405 885 405 675]
433.614	2.0	5769928	5771959	ShowFixation	ANTI	53	3	False	red	180	[1035 1515  405  675]	[405 885 405 675]
435.645	0.2	5771959	5772194	BlankScreen	ANTI	53	3	False	red	180	[1035 1515  405  675]	[405 885 405 675]
435.88	1.0	5772194	5773194	ELCue	ANTI	53	3	False	red	180	[1035 1515  405  675]	[405 885 405 675]
437.297	2.0	5773611	5775646	ShowFixation	VGS	54	3	False	lime	180	[405 885 405 675]	[1035 1515  405  675]
439.332	0.2	5775646	5775881	BlankScreen	VGS	54	3	False	lime	180	[405 885 405 675]	[1035 1515  405  675]
439.567	1.0	5775881	5776881	ELCue	VGS	54	3	False	lime	180	[405 885 405 675]	[1035 1515  405  675]
440.989	2.0	5777303	5779333	ShowFixation	ANTI	55	3	False	red	600	[ 90 570 405 675]	[1350 1830  405  675]
443.019	0.2	5779333	5779568	BlankScreen	ANTI	55	3	False	red	600	[ 90 570 405 675]	[1350 1830  405  675]
443.254	1.0	5779568	5780568	ELCue	ANTI	55	3	False	red	600	[ 90 570 405 675]	[1350 1830  405  675]
444.671	2.0	5780985	5783020	ShowFixation	ANTI	56	3	False	red	40	[1350 1830  405  675]	[ 90 570 405 675]
446.706	0.2	5783020	5783255	BlankScreen	ANTI	56	3	False	red	40	[1350 1830  405  675]	[ 90 570 405 675]
446.941	1.0	5783255	5784255	ELCue	ANTI	56	3	False	red	40	[1350 1830  405  675]	[ 90 570 405 675]
448.361	6.0	5784675	5790707	ShowFixation	ANTI	57	3	False	red	180	[1035 1515  405  675]	[405 885 405 675]
454.393	0.2	5790707	5790946	BlankScreen	ANTI	57	3	False	red	180	[1035 1515  405  675]	[405 885 405 675]
454.632	1.0	5790946	5791946	ELCue	ANTI	57	3	False	red	180	[1035 1515  405  675]	[405 885 405 675]
456.05	6.0	5792364	5798398	ShowFixation	ANTI	58	3	False	red	600	[ 90 570 405 675]	[1350 1830  405  675]
462.084	0.2	5798398	5798637	BlankScreen	ANTI	58	3	False	red	600	[ 90 570 405 675]	[1350 1830  405  675]
462.323	1.0	5798637	5799637	ELCue	ANTI	58	3	False	red	600	[ 90 570 405 675]	[1350 1830  405  675]
463.745	2.0	5800059	5802089	ShowFixation	VGS	59	3	False	lime	40	[ 90 570 405 675]	[1350 1830  405  675]
465.775	0.2	5802089	5802324	BlankScreen	VGS	59	3	False	lime	40	[ 90 570 405 675]	[1350 1830  405  675]
466.01	1.0	5802324	5803324	ELCue	VGS	59	3	False	lime	40	[ 90 570 405 675]	[1350 1830  405  675]
467.431	6.0	5803745	5809776	ShowFixation	VGS	60	3	False	lime	600	[1350 1830  405  675]	[ 90 570 405 675]
473.462	0.2	5809776	5810015	BlankScreen	VGS	60	3	False	lime	600	[1350 1830  405  675]	[ 90 570 405 675]
473.701	1.0	5810015	5811015	ELCue	VGS	60	3	False	lime	600	[1350 1830  405  675]	[ 90 570 405 675]
475.125	2.0	5811439	5813467	ShowFixation	ANTI	61	3	False	red	460	[405 885 405 675]	[1035 1515  405  675]
477.153	0.2	5813467	5813702	BlankScreen	ANTI	61	3	False	red	460	[405 885 405 675]	[1035 1515  405  675]
477.388	1.0	5813702	5814702	ELCue	ANTI	61	3	False	red	460	[405 885 405 675]	[1035 1515  405  675]
478.813	6.0	5815127	5821154	ShowFixation	ANTI	62	3	False	red	460	[405 885 405 675]	[1035 1515  405  675]
484.84	0.2	5821154	5821393	BlankScreen	ANTI	62	3	False	red	460	[405 885 405 675]	[1035 1515  405  675]
485.079	1.0	5821393	5822393	ELCue	ANTI	62	3	False	red	460	[405 885 405 675]	[1035 1515  405  675]
486.502	2.0	5822816	5824845	ShowFixation	VGS	63	3	False	lime	460	[1035 1515  405  675]	[405 885 405 675]
488.531	0.2	5824845	5825080	BlankScreen	VGS	63	3	False	lime	460	[1035 1515  405  675]	[405 885 405 675]
488.766	1.0	5825080	5826080	ELCue	VGS	63	3	False	lime	460	[1035 1515  405  675]	[405 885 405 675]
490.19	6.0	5826504	5832532	ShowFixation	VGS	64	3	False	lime	180	[405 885 405 675]	[1035 1515  405  675]
496.218	0.2	5832532	5832771	BlankScreen	VGS	64	3	False	lime	180	[405 885 405 675]	[1035 1515  405  675]
496.457	1.0	5832771	5833771	ELCue	VGS	64	3	False	lime	180	[405 885 405 675]	[1035 1515  405  675]
497.878	2.0	5834192	5836222	ShowFixation	VGS	65	3	False	lime	180	[405 885 405 675]	[1035 1515  405  675]
499.908	0.2	5836222	5836458	BlankScreen	VGS	65	3	False	lime	180	[405 885 405 675]	[1035 1515  405  675]
500.144	1.0	5836458	5837458	ELCue	VGS	65	3	False	lime	180	[405 885 405 675]	[1035 1515  405  675]
501.569	6.0	5837883	5843909	ShowFixation	ANTI	66	3	False	red	40	[1350 1830  405  675]	[ 90 570 405 675]
507.595	0.2	5843909	5844149	BlankScreen	ANTI	66	3	False	red	40	[1350 1830  405  675]	[ 90 570 405 675]
507.835	1.0	5844149	5845149	ELCue	ANTI	66	3	False	red	40	[1350 1830  405  675]	[ 90 570 405 675]
509.258	2.0	5845572	5847600	ShowFixation	VGS	67	3	False	lime	460	[1035 1515  405  675]	[405 885 405 675]
511.286	0.2	5847600	5847836	BlankScreen	VGS	67	3	False	lime	460	[1035 1515  405  675]	[405 885 405 675]
511.522	1.0	5847836	5848836	ELCue	VGS	67	3	False	lime	460	[1035 1515  405  675]	[405 885 405 675]
512.946	2.0	5849260	5851287	ShowFixation	VGS	68	3	False	lime	40	[ 90 570 405 675]	[1350 1830  405  675]
514.973	0.2	5851287	5851523	BlankScreen	VGS	68	3	False	lime	40	[ 90 570 405 675]	[1350 1830  405  675]
515.209	1.0	5851523	5852523	ELCue	VGS	68	3	False	lime	40	[ 90 570 405 675]	[1350 1830  405  675]
516.629	6.0	5852943	5858975	ShowFixation	ANTI	69	3	False	red	180	[1035 1515  405  675]	[405 885 405 675]
522.661	0.2	5858975	5859214	BlankScreen	ANTI	69	3	False	red	180	[1035 1515  405  675]	[405 885 405 675]
522.9	1.0	5859214	5860214	ELCue	ANTI	69	3	False	red	180	[1035 1515  405  675]	[405 885 405 675]
524.323	6.0	5860637	5866666	ShowFixation	VGS	70	3	False	lime	180	[405 885 405 675]	[1035 1515  405  675]
530.352	0.2	5866666	5866906	BlankScreen	VGS	70	3	False	lime	180	[405 885 405 675]	[1035 1515  405  675]
530.592	1.0	5866906	5867906	ELCue	VGS	70	3	False	lime	180	[405 885 405 675]	[1035 1515  405  675]
532.01	6.0	5868324	5874357	ShowFixation	ANTI	71	3	False	red	600	[ 90 570 405 675]	[1350 1830  405  675]
538.043	0.2	5874357	5874596	BlankScreen	ANTI	71	3	False	red	600	[ 90 570 405 675]	[1350 1830  405  675]
538.282	1.0	5874596	5875596	ELCue	ANTI	71	3	False	red	600	[ 90 570 405 675]	[1350 1830  405  675]
539.701	6.0	5876015	5882048	ShowFixation	ANTI	72	3	False	red	40	[1350 1830  405  675]	[ 90 570 405 675]
545.734	0.2	5882048	5882287	BlankScreen	ANTI	72	3	False	red	40	[1350 1830  405  675]	[ 90 570 405 675]
545.973	1.0	5882287	5883287	ELCue	ANTI	72	3	False	red	40	[1350 1830  405  675]	[ 90 570 405 675]
547.391	2.0	5883705	5885739	ShowFixation	VGS	73	3	False	lime	600	[1350 1830  405  675]	[ 90 570 405 675]
549.425	0.2	5885739	5885974	BlankScreen	VGS	73	3	False	lime	600	[1350 1830  405  675]	[ 90 570 405 675]
549.66	1.0	5885974	5886974	ELCue	VGS	73	3	False	lime	600	[1350 1830  405  675]	[ 90 570 405 675]
551.196	6.0	5887510	5893543	ShowFixation	VGS	74	3	False	lime	460	[1035 1515  405  675]	[405 885 405 675]
557.229	0.2	5893543	5893782	BlankScreen	VGS	74	3	False	lime	460	[1035 1515  405  675]	[405 885 405 675]
557.468	1.0	5893782	5894782	ELCue	VGS	74	3	False	lime	460	[1035 1515  405  675]	[405 885 405 675]
558.856	2.0	5895170	5897200	ShowFixation	ANTI	75	3	False	red	40	[1350 1830  405  675]	[ 90 570 405 675]
560.886	0.2	5897200	5897436	BlankScreen	ANTI	75	3	False	red	40	[1350 1830  405  675]	[ 90 570 405 675]
561.122	1.0	5897436	5898436	ELCue	ANTI	75	3	False	red	40	[1350 1830  405  675]	[ 90 570 405 675]
562.537	6.0	5898851	5904887	ShowFixation	VGS	76	3	False	lime	600	[1350 1830  405  675]	[ 90 570 405 675]
568.573	0.2	5904887	5905127	BlankScreen	VGS	76	3	False	lime	600	[1350 1830  405  675]	[ 90 570 405 675]
568.813	1.0	5905127	5906127	ELCue	VGS	76	3	False	lime	600	[1350 1830  405  675]	[ 90 570 405 675]
570.235	2.0	5906549	5908578	ShowFixation	VGS	77	3	False	lime	600	[1350 1830  405  675]	[ 90 570 405 675]
572.264	0.2	5908578	5908814	BlankScreen	VGS	77	3	False	lime	600	[1350 1830  405  675]	[ 90 570 405 675]
572.5	1.0	5908814	5909814	ELCue	VGS	77	3	False	lime	600	[1350 1830  405  675]	[ 90 570 405 675]
573.919	2.0	5910233	5912265	ShowFixation	ANTI	78	3	False	red	600	[ 90 570 405 675]	[1350 1830  405  675]
575.951	0.2	5912265	5912501	BlankScreen	ANTI	78	3	False	red	600	[ 90 570 405 675]	[1350 1830  405  675]
576.187	1.0	5912501	5913501	ELCue	ANTI	78	3	False	red	600	[ 90 570 405 675]	[1350 1830  405  675]
577.603	2.0	5913917	5915952	ShowFixation	ANTI	79	3	False	red	460	[405 885 405 675]	[1035 1515  405  675]
579.638	0.2	5915952	5916187	BlankScreen	ANTI	79	3	False	red	460	[405 885 405 675]	[1035 1515  405  675]
579.873	1.0	5916187	5917187	ELCue	ANTI	79	3	False	red	460	[405 885 405 675]	[1035 1515  405  675]
581.294	2.0	5917608	5919639	ShowFixation	ANTI	80	3	False	red	180	[1035 1515  405  675]	[405 885 405 675]
583.325	0.2	5919639	5919874	BlankScreen	ANTI	80	3	False	red	180	[1035 1515  405  675]	[405 885 405 675]
583.56	1.0	5919874	5920874	ELCue	ANTI	80	3	False	red	180	[1035 1515  405  675]	[405 885 405 675]
634.491	2.0	5970805	5972842	ShowFixation	ANTI	81	4	False	red	40	[1350 1830  405  675]	[ 90 570 405 675]
636.528	0.2	5972842	5973077	BlankScreen	ANTI	81	4	False	red	40	[1350 1830  405  675]	[ 90 570 405 675]
636.763	1.0	5973077	5974077	ELCue	ANTI	81	4	False	red	40	[1350 1830  405  675]	[ 90 570 405 675]
638.186	2.0	5974500	5976529	ShowFixation	ANTI	82	4	False	red	40	[1350 1830  405  675]	[ 90 570 405 675]
640.215	0.2	5976529	5976764	BlankScreen	ANTI	82	4	False	red	40	[1350 1830  405  675]	[ 90 570 405 675]
640.45	1.0	5976764	5977764	ELCue	ANTI	82	4	False	red	40	[1350 1830  405  675]	[ 90 570 405 675]
641.923	2.0	5978237	5980266	ShowFixation	VGS	83	4	False	lime	180	[405 885 405 675]	[1035 1515  405  675]
643.952	0.2	5980266	5980501	BlankScreen	VGS	83	4	False	lime	180	[405 885 405 675]	[1035 1515  405  675]
644.187	1.0	5980501	5981501	ELCue	VGS	83	4	False	lime	180	[405 885 405 675]	[1035 1515  405  675]
645.608	6.0	5981922	5987953	ShowFixation	ANTI	84	4	False	red	460	[405 885 405 675]	[1035 1515  405  675]
651.639	0.2	5987953	5988192	BlankScreen	ANTI	84	4	False	red	460	[405 885 405 675]	[1035 1515  405  675]
651.878	1.0	5988192	5989192	ELCue	ANTI	84	4	False	red	460	[405 885 405 675]	[1035 1515  405  675]
653.298	6.0	5989612	5995643	ShowFixation	VGS	85	4	False	lime	180	[405 885 405 675]	[1035 1515  405  675]
659.329	0.2	5995643	5995883	BlankScreen	VGS	85	4	False	lime	180	[405 885 405 675]	[1035 1515  405  675]
659.569	1.0	5995883	5996883	ELCue	VGS	85	4	False	lime	180	[405 885 405 675]	[1035 1515  405  675]
660.99	2.0	5997304	5999334	ShowFixation	VGS	86	4	False	lime	600	[1350 1830  405  675]	[ 90 570 405 675]
663.021	0.2	5999335	5999571	BlankScreen	VGS	86	4	False	lime	600	[1350 1830  405  675]	[ 90 570 405 675]
663.257	1.0	5999571	6000571	ELCue	VGS	86	4	False	lime	600	[1350 1830  405  675]	[ 90 570 405 675]
664.679	6.0	6000993	6007022	ShowFixation	ANTI	87	4	False	red	40	[1350 1830  405  675]	[ 90 570 405 675]
670.708	0.2	6007022	6007262	BlankScreen	ANTI	87	4	False	red	40	[1350 1830  405  675]	[ 90 570 405 675]
670.948	1.0	6007262	6008262	ELCue	ANTI	87	4	False	red	40	[1350 1830  405  675]	[ 90 570 405 675]
672.368	2.0	6008682	6010713	ShowFixation	VGS	88	4	False	lime	40	[ 90 570 405 675]	[1350 1830  405  675]
674.399	0.2	6010713	6010949	BlankScreen	VGS	88	4	False	lime	40	[ 90 570 405 675]	[1350 1830  405  675]
674.635	1.0	6010949	6011949	ELCue	VGS	88	4	False	lime	40	[ 90 570 405 675]	[1350 1830  405  675]
676.056	6.0	6012370	6018400	ShowFixation	VGS	89	4	False	lime	40	[ 90 570 405 675]	[1350 1830  405  675]
682.086	0.2	6018400	6018640	BlankScreen	VGS	89	4	False	lime	40	[ 90 570 405 675]	[1350 1830  405  675]
682.326	1.0	6018640	6019640	ELCue	VGS	89	4	False	lime	40	[ 90 570 405 675]	[1350 1830  405  675]
683.746	2.0	6020060	6022091	ShowFixation	VGS	90	4	False	lime	460	[1035 1515  405  675]	[405 885 405 675]
685.777	0.2	6022091	6022327	BlankScreen	VGS	90	4	False	lime	460	[1035 1515  405  675]	[405 885 405 675]
686.013	1.0	6022327	6023327	ELCue	VGS	90	4	False	lime	460	[1035 1515  405  675]	[405 885 405 675]
687.436	6.0	6023750	6029778	ShowFixation	VGS	91	4	False	lime	180	[405 885 405 675]	[1035 1515  405  675]
693.464	0.2	6029778	6030017	BlankScreen	VGS	91	4	False	lime	180	[405 885 405 675]	[1035 1515  405  675]
693.703	1.0	6030017	6031017	ELCue	VGS	91	4	False	lime	180	[405 885 405 675]	[1035 1515  405  675]
695.123	2.0	6031437	6033469	ShowFixation	ANTI	92	4	False	red	180	[1035 1515  405  675]	[405 885 405 675]
697.155	0.2	6033469	6033704	BlankScreen	ANTI	92	4	False	red	180	[1035 1515  405  675]	[405 885 405 675]
697.39	1.0	6033704	6034704	ELCue	ANTI	92	4	False	red	180	[1035 1515  405  675]	[405 885 405 675]
698.811	6.0	6035125	6041156	ShowFixation	VGS	93	4	False	lime	600	[1350 1830  405  675]	[ 90 570 405 675]
704.842	0.2	6041156	6041395	BlankScreen	VGS	93	4	False	lime	600	[1350 1830  405  675]	[ 90 570 405 675]
705.081	1.0	6041395	6042395	ELCue	VGS	93	4	False	lime	600	[1350 1830  405  675]	[ 90 570 405 675]
706.501	2.0	6042815	6044847	ShowFixation	VGS	94	4	False	lime	600	[1350 1830  405  675]	[ 90 570 405 675]
708.533	0.2	6044847	6045082	BlankScreen	VGS	94	4	False	lime	600	[1350 1830  405  675]	[ 90 570 405 675]
708.768	1.0	6045082	6046082	ELCue	VGS	94	4	False	lime	600	[1350 1830  405  675]	[ 90 570 405 675]
710.189	2.0	6046503	6048534	ShowFixation	ANTI	95	4	False	red	600	[ 90 570 405 675]	[1350 1830  405  675]
712.22	0.2	6048534	6048769	BlankScreen	ANTI	95	4	False	red	600	[ 90 570 405 675]	[1350 1830  405  675]
712.455	1.0	6048769	6049769	ELCue	ANTI	95	4	False	red	600	[ 90 570 405 675]	[1350 1830  405  675]
713.873	6.0	6050187	6056221	ShowFixation	ANTI	96	4	False	red	40	[1350 1830  405  675]	[ 90 570 405 675]
719.907	0.2	6056221	6056460	BlankScreen	ANTI	96	4	False	red	40	[1350 1830  405  675]	[ 90 570 405 675]
720.146	1.0	6056460	6057460	ELCue	ANTI	96	4	False	red	40	[1350 1830  405  675]	[ 90 570 405 675]
721.566	2.0	6057880	6059912	ShowFixation	ANTI	97	4	False	red	460	[405 885 405 675]	[1035 1515  405  675]
723.598	0.2	6059912	6060147	BlankScreen	ANTI	97	4	False	red	460	[405 885 405 675]	[1035 1515  405  675]
723.833	1.0	6060147	6061147	ELCue	ANTI	97	4	False	red	460	[405 885 405 675]	[1035 1515  405  675]
725.254	6.0	6061568	6067599	ShowFixation	ANTI	98	4	False	red	600	[ 90 570 405 675]	[1350 1830  405  675]
731.285	0.2	6067599	6067838	BlankScreen	ANTI	98	4	False	red	600	[ 90 570 405 675]	[1350 1830  405  675]
731.524	1.0	6067838	6068838	ELCue	ANTI	98	4	False	red	600	[ 90 570 405 675]	[1350 1830  405  675]
732.942	2.0	6069256	6071290	ShowFixation	ANTI	99	4	False	red	600	[ 90 570 405 675]	[1350 1830  405  675]
734.976	0.2	6071290	6071525	BlankScreen	ANTI	99	4	False	red	600	[ 90 570 405 675]	[1350 1830  405  675]
735.211	1.0	6071525	6072525	ELCue	ANTI	99	4	False	red	600	[ 90 570 405 675]	[1350 1830  405  675]
736.628	2.0	6072942	6074977	ShowFixation	ANTI	100	4	False	red	180	[1035 1515  405  675]	[405 885 405 675]
738.663	0.2	6074977	6075212	BlankScreen	ANTI	100	4	False	red	180	[1035 1515  405  675]	[405 885 405 675]
738.898	1.0	6075212	6076212	ELCue	ANTI	100	4	False	red	180	[1035 1515  405  675]	[405 885 405 675]
740.321	6.0	6076635	6082664	ShowFixation	VGS	101	4	False	lime	40	[ 90 570 405 675]	[1350 1830  405  675]
746.35	0.2	6082664	6082903	BlankScreen	VGS	101	4	False	lime	40	[ 90 570 405 675]	[1350 1830  405  675]
746.589	1.0	6082903	6083903	ELCue	VGS	101	4	False	lime	40	[ 90 570 405 675]	[1350 1830  405  675]
748.006	6.0	6084320	6090355	ShowFixation	VGS	102	4	False	lime	460	[1035 1515  405  675]	[405 885 405 675]
754.041	0.2	6090355	6090594	BlankScreen	VGS	102	4	False	lime	460	[1035 1515  405  675]	[405 885 405 675]
754.28	1.0	6090594	6091594	ELCue	VGS	102	4	False	lime	460	[1035 1515  405  675]	[405 885 405 675]
755.699	2.0	6092013	6094045	ShowFixation	VGS	103	4	False	lime	180	[405 885 405 675]	[1035 1515  405  675]
757.731	0.2	6094045	6094281	BlankScreen	VGS	103	4	False	lime	180	[405 885 405 675]	[1035 1515  405  675]
757.967	1.0	6094281	6095281	ELCue	VGS	103	4	False	lime	180	[405 885 405 675]	[1035 1515  405  675]
759.382	6.0	6095696	6101732	ShowFixation	ANTI	104	4	False	red	600	[ 90 570 405 675]	[1350 1830  405  675]
765.418	0.2	6101732	6101972	BlankScreen	ANTI	104	4	False	red	600	[ 90 570 405 675]	[1350 1830  405  675]
765.658	1.0	6101972	6102972	ELCue	ANTI	104	4	False	red	600	[ 90 570 405 675]	[1350 1830  405  675]
767.076	6.0	6103390	6109423	ShowFixation	VGS	105	4	False	lime	460	[1035 1515  405  675]	[405 885 405 675]
773.109	0.2	6109423	6109663	BlankScreen	VGS	105	4	False	lime	460	[1035 1515  405  675]	[405 885 405 675]
773.349	1.0	6109663	6110663	ELCue	VGS	105	4	False	lime	460	[1035 1515  405  675]	[405 885 405 675]
774.771	2.0	6111085	6113114	ShowFixation	VGS	106	4	False	lime	40	[ 90 570 405 675]	[1350 1830  405  675]
776.8	0.2	6113114	6113350	BlankScreen	VGS	106	4	False	lime	40	[ 90 570 405 675]	[1350 1830  405  675]
777.036	1.0	6113350	6114350	ELCue	VGS	106	4	False	lime	40	[ 90 570 405 675]	[1350 1830  405  675]
778.458	2.0	6114772	6116801	ShowFixation	ANTI	107	4	False	red	460	[405 885 405 675]	[1035 1515  405  675]
780.488	0.2	6116802	6117037	BlankScreen	ANTI	107	4	False	red	460	[405 885 405 675]	[1035 1515  405  675]
780.723	1.0	6117037	6118037	ELCue	ANTI	107	4	False	red	460	[405 885 405 675]	[1035 1515  405  675]
782.147	6.0	6118461	6124488	ShowFixation	ANTI	108	4	False	red	180	[1035 1515  405  675]	[405 885 405 675]
788.174	0.2	6124488	6124727	BlankScreen	ANTI	108	4	False	red	180	[1035 1515  405  675]	[405 885 405 675]
788.413	1.0	6124727	6125727	ELCue	ANTI	108	4	False	red	180	[1035 1515  405  675]	[405 885 405 675]
789.832	6.0	6126146	6132179	ShowFixation	ANTI	109	4	False	red	180	[1035 1515  405  675]	[405 885 405 675]
795.865	0.2	6132179	6132418	BlankScreen	ANTI	109	4	False	red	180	[1035 1515  405  675]	[405 885 405 675]
796.104	1.0	6132418	6133418	ELCue	ANTI	109	4	False	red	180	[1035 1515  405  675]	[405 885 405 675]
797.526	2.0	6133840	6135870	ShowFixation	VGS	110	4	False	lime	460	[1035 1515  405  675]	[405 885 405 675]
799.557	0.2	6135871	6136105	BlankScreen	VGS	110	4	False	lime	460	[1035 1515  405  675]	[405 885 405 675]
799.791	1.0	6136105	6137105	ELCue	VGS	110	4	False	lime	460	[1035 1515  405  675]	[405 885 405 675]
801.178	6.0	6137492	6143524	ShowFixation	VGS	111	4	False	lime	600	[1350 1830  405  675]	[ 90 570 405 675]
807.211	0.2	6143525	6143763	BlankScreen	VGS	111	4	False	lime	600	[1350 1830  405  675]	[ 90 570 405 675]
807.45	1.0	6143764	6144764	ELCue	VGS	111	4	False	lime	600	[1350 1830  405  675]	[ 90 570 405 675]
808.84	6.0	6145154	6151182	ShowFixation	ANTI	112	4	False	red	460	[405 885 405 675]	[1035 1515  405  675]
814.868	0.2	6151182	6151421	BlankScreen	ANTI	112	4	False	red	460	[405 885 405 675]	[1035 1515  405  675]
815.107	1.0	6151421	6152421	ELCue	ANTI	112	4	False	red	460	[405 885 405 675]	[1035 1515  405  675]
