onset	duration	startTime	stopTime	eventIdentifier	trial_type	trial_number	block_number	is_practice	fixation_color	cue_side	aoi_correct	aoi_incorrect
0.153	6.0	2580461	2586486	ShowFixation	ANTI	1	1	True	red	600	[ 90 570 405 675]	[1350 1830  405  675]
6.178	0.2	2586486	2586725	BlankScreen	ANTI	1	1	True	red	600	[ 90 570 405 675]	[1350 1830  405  675]
6.417	1.0	2586725	2587766	ELCue	ANTI	1	1	True	red	600	[ 90 570 405 675]	[1350 1830  405  675]
7.951	2.0	2588259	2590811	ShowFixation	ANTI	2	1	True	red	600	[ 90 570 405 675]	[1350 1830  405  675]
10.503	0.2	2590811	2591046	BlankScreen	ANTI	2	1	True	red	600	[ 90 570 405 675]	[1350 1830  405  675]
10.738	1.0	2591046	2592087	ELCue	ANTI	2	1	True	red	600	[ 90 570 405 675]	[1350 1830  405  675]
12.197	6.0	2592505	2599132	ShowFixation	VGS	3	1	True	lime	180	[405 885 405 675]	[1035 1515  405  675]
18.824	0.2	2599132	2599371	BlankScreen	VGS	3	1	True	lime	180	[405 885 405 675]	[1035 1515  405  675]
19.063	1.0	2599371	2600412	ELCue	VGS	3	1	True	lime	180	[405 885 405 675]	[1035 1515  405  675]
20.507	2.0	2600815	2603440	ShowFixation	ANTI	4	1	True	red	40	[1350 1830  405  675]	[ 90 570 405 675]
23.132	0.2	2603440	2603659	BlankScreen	ANTI	4	1	True	red	40	[1350 1830  405  675]	[ 90 570 405 675]
23.351	1.0	2603659	2604683	ELCue	ANTI	4	1	True	red	40	[1350 1830  405  675]	[ 90 570 405 675]
24.796	2.0	2605104	2607728	ShowFixation	ANTI	5	1	True	red	180	[1035 1515  405  675]	[405 885 405 675]
27.42	0.2	2607728	2607963	BlankScreen	ANTI	5	1	True	red	180	[1035 1515  405  675]	[405 885 405 675]
27.655	1.0	2607963	2609004	ELCue	ANTI	5	1	True	red	180	[1035 1515  405  675]	[405 885 405 675]
29.118	6.0	2609426	2616049	ShowFixation	ANTI	6	1	True	red	40	[1350 1830  405  675]	[ 90 570 405 675]
35.742	0.2	2616050	2616288	BlankScreen	ANTI	6	1	True	red	40	[1350 1830  405  675]	[ 90 570 405 675]
35.981	1.0	2616289	2617328	ELCue	ANTI	6	1	True	red	40	[1350 1830  405  675]	[ 90 570 405 675]
37.443	2.0	2617751	2620358	ShowFixation	VGS	7	1	True	lime	600	[1350 1830  405  675]	[ 90 570 405 675]
40.05	0.2	2620358	2620576	BlankScreen	VGS	7	1	True	lime	600	[1350 1830  405  675]	[ 90 570 405 675]
40.268	1.0	2620576	2621599	ELCue	VGS	7	1	True	lime	600	[1350 1830  405  675]	[ 90 570 405 675]
41.714	2.0	2622022	2624645	ShowFixation	VGS	8	1	True	lime	40	[ 90 570 405 675]	[1350 1830  405  675]
44.337	0.2	2624645	2624881	BlankScreen	VGS	8	1	True	lime	40	[ 90 570 405 675]	[1350 1830  405  675]
44.573	1.0	2624881	2625920	ELCue	VGS	8	1	True	lime	40	[ 90 570 405 675]	[1350 1830  405  675]
46.031	2.0	2626339	2628950	ShowFixation	VGS	9	1	True	lime	180	[405 885 405 675]	[1035 1515  405  675]
48.642	0.2	2628950	2629168	BlankScreen	VGS	9	1	True	lime	180	[405 885 405 675]	[1035 1515  405  675]
48.86	1.0	2629168	2630191	ELCue	VGS	9	1	True	lime	180	[405 885 405 675]	[1035 1515  405  675]
50.302	2.0	2630610	2633237	ShowFixation	ANTI	10	1	True	red	460	[405 885 405 675]	[1035 1515  405  675]
52.929	0.2	2633237	2633472	BlankScreen	ANTI	10	1	True	red	460	[405 885 405 675]	[1035 1515  405  675]
53.164	1.0	2633472	2634509	ELCue	ANTI	10	1	True	red	460	[405 885 405 675]	[1035 1515  405  675]
54.627	6.0	2634935	2641558	ShowFixation	VGS	11	1	True	lime	460	[1035 1515  405  675]	[405 885 405 675]
61.25	0.2	2641558	2641797	BlankScreen	VGS	11	1	True	lime	460	[1035 1515  405  675]	[405 885 405 675]
61.489	1.0	2641797	2642837	ELCue	VGS	11	1	True	lime	460	[1035 1515  405  675]	[405 885 405 675]
62.95	6.0	2643258	2649866	ShowFixation	VGS	12	1	True	lime	40	[ 90 570 405 675]	[1350 1830  405  675]
69.558	0.2	2649866	2650106	BlankScreen	VGS	12	1	True	lime	40	[ 90 570 405 675]	[1350 1830  405  675]
69.798	1.0	2650106	2651146	ELCue	VGS	12	1	True	lime	40	[ 90 570 405 675]	[1350 1830  405  675]
71.261	6.0	2651569	2658191	ShowFixation	VGS	13	1	True	lime	600	[1350 1830  405  675]	[ 90 570 405 675]
77.883	0.2	2658191	2658430	BlankScreen	VGS	13	1	True	lime	600	[1350 1830  405  675]	[ 90 570 405 675]
78.122	1.0	2658430	2659470	ELCue	VGS	13	1	True	lime	600	[1350 1830  405  675]	[ 90 570 405 675]
79.581	6.0	2659889	2666499	ShowFixation	ANTI	14	1	True	red	180	[1035 1515  405  675]	[405 885 405 675]
86.191	0.2	2666499	2666739	BlankScreen	ANTI	14	1	True	red	180	[1035 1515  405  675]	[405 885 405 675]
86.431	1.0	2666739	2667779	ELCue	ANTI	14	1	True	red	180	[1035 1515  405  675]	[405 885 405 675]
87.893	6.0	2668201	2674824	ShowFixation	ANTI	15	1	True	red	460	[405 885 405 675]	[1035 1515  405  675]
94.516	0.2	2674824	2675063	BlankScreen	ANTI	15	1	True	red	460	[405 885 405 675]	[1035 1515  405  675]
94.755	1.0	2675063	2676104	ELCue	ANTI	15	1	True	red	460	[405 885 405 675]	[1035 1515  405  675]
96.211	2.0	2676519	2679149	ShowFixation	VGS	16	1	True	lime	460	[1035 1515  405  675]	[405 885 405 675]
98.841	0.2	2679149	2679384	BlankScreen	VGS	16	1	True	lime	460	[1035 1515  405  675]	[405 885 405 675]
99.076	1.0	2679384	2680425	ELCue	VGS	16	1	True	lime	460	[1035 1515  405  675]	[405 885 405 675]
134.998	6.0	2715306	2721337	ShowFixation	VGS	17	2	False	lime	600	[1350 1830  405  675]	[ 90 570 405 675]
141.029	0.2	2721337	2721576	BlankScreen	VGS	17	2	False	lime	600	[1350 1830  405  675]	[ 90 570 405 675]
141.268	1.0	2721576	2722576	ELCue	VGS	17	2	False	lime	600	[1350 1830  405  675]	[ 90 570 405 675]
142.693	2.0	2723001	2725028	ShowFixation	VGS	18	2	False	lime	180	[405 885 405 675]	[1035 1515  405  675]
144.72	0.2	2725028	2725263	BlankScreen	VGS	18	2	False	lime	180	[405 885 405 675]	[1035 1515  405  675]
144.955	1.0	2725263	2726263	ELCue	VGS	18	2	False	lime	180	[405 885 405 675]	[1035 1515  405  675]
146.384	6.0	2726692	2732731	ShowFixation	VGS	19	2	False	lime	40	[ 90 570 405 675]	[1350 1830  405  675]
152.423	0.2	2732731	2732971	BlankScreen	VGS	19	2	False	lime	40	[ 90 570 405 675]	[1350 1830  405  675]
152.663	1.0	2732971	2733971	ELCue	VGS	19	2	False	lime	40	[ 90 570 405 675]	[1350 1830  405  675]
154.085	6.0	2734393	2740422	ShowFixation	ANTI	20	2	False	red	180	[1035 1515  405  675]	[405 885 405 675]
160.114	0.2	2740422	2740662	BlankScreen	ANTI	20	2	False	red	180	[1035 1515  405  675]	[405 885 405 675]
160.354	1.0	2740662	2741662	ELCue	ANTI	20	2	False	red	180	[1035 1515  405  675]	[405 885 405 675]
161.781	6.0	2742089	2748131	ShowFixation	ANTI	21	2	False	red	600	[ 90 570 405 675]	[1350 1830  405  675]
167.823	0.2	2748131	2748370	BlankScreen	ANTI	21	2	False	red	600	[ 90 570 405 675]	[1350 1830  405  675]
168.062	1.0	2748370	2749370	ELCue	ANTI	21	2	False	red	600	[ 90 570 405 675]	[1350 1830  405  675]
169.49	6.0	2749798	2755838	ShowFixation	VGS	22	2	False	lime	180	[405 885 405 675]	[1035 1515  405  675]
175.53	0.2	2755838	2756078	BlankScreen	VGS	22	2	False	lime	180	[405 885 405 675]	[1035 1515  405  675]
175.77	1.0	2756078	2757078	ELCue	VGS	22	2	False	lime	180	[405 885 405 675]	[1035 1515  405  675]
177.196	6.0	2757504	2763529	ShowFixation	VGS	23	2	False	lime	600	[1350 1830  405  675]	[ 90 570 405 675]
183.221	0.2	2763529	2763769	BlankScreen	VGS	23	2	False	lime	600	[1350 1830  405  675]	[ 90 570 405 675]
183.461	1.0	2763769	2764769	ELCue	VGS	23	2	False	lime	600	[1350 1830  405  675]	[ 90 570 405 675]
184.885	2.0	2765193	2767220	ShowFixation	ANTI	24	2	False	red	460	[405 885 405 675]	[1035 1515  405  675]
186.912	0.2	2767220	2767456	BlankScreen	ANTI	24	2	False	red	460	[405 885 405 675]	[1035 1515  405  675]
187.148	1.0	2767456	2768456	ELCue	ANTI	24	2	False	red	460	[405 885 405 675]	[1035 1515  405  675]
188.573	6.0	2768881	2774907	ShowFixation	ANTI	25	2	False	red	180	[1035 1515  405  675]	[405 885 405 675]
194.599	0.2	2774907	2775147	BlankScreen	ANTI	25	2	False	red	180	[1035 1515  405  675]	[405 885 405 675]
194.839	1.0	2775147	2776147	ELCue	ANTI	25	2	False	red	180	[1035 1515  405  675]	[405 885 405 675]
196.264	2.0	2776572	2778598	ShowFixation	VGS	26	2	False	lime	40	[ 90 570 405 675]	[1350 1830  405  675]
198.29	0.2	2778598	2778833	BlankScreen	VGS	26	2	False	lime	40	[ 90 570 405 675]	[1350 1830  405  675]
198.525	1.0	2778833	2779833	ELCue	VGS	26	2	False	lime	40	[ 90 570 405 675]	[1350 1830  405  675]
199.949	2.0	2780257	2782285	ShowFixation	VGS	27	2	False	lime	460	[1035 1515  405  675]	[405 885 405 675]
201.977	0.2	2782285	2782520	BlankScreen	VGS	27	2	False	lime	460	[1035 1515  405  675]	[405 885 405 675]
202.212	1.0	2782520	2783520	ELCue	VGS	27	2	False	lime	460	[1035 1515  405  675]	[405 885 405 675]
203.638	6.0	2783946	2789972	ShowFixation	ANTI	28	2	False	red	460	[405 885 405 675]	[1035 1515  405  675]
209.664	0.2	2789972	2790211	BlankScreen	ANTI	28	2	False	red	460	[405 885 405 675]	[1035 1515  405  675]
209.903	1.0	2790211	2791211	ELCue	ANTI	28	2	False	red	460	[405 885 405 675]	[1035 1515  405  675]
211.331	6.0	2791639	2797680	ShowFixation	ANTI	29	2	False	red	460	[405 885 405 675]	[1035 1515  405  675]
217.372	0.2	2797680	2797919	BlankScreen	ANTI	29	2	False	red	460	[405 885 405 675]	[1035 1515  405  675]
217.611	1.0	2797919	2798919	ELCue	ANTI	29	2	False	red	460	[405 885 405 675]	[1035 1515  405  675]
219.036	6.0	2799344	2805371	ShowFixation	ANTI	30	2	False	red	40	[1350 1830  405  675]	[ 90 570 405 675]
225.063	0.2	2805371	2805610	BlankScreen	ANTI	30	2	False	red	40	[1350 1830  405  675]	[ 90 570 405 675]
225.302	1.0	2805610	2806610	ELCue	ANTI	30	2	False	red	40	[1350 1830  405  675]	[ 90 570 405 675]
226.725	2.0	2807033	2809062	ShowFixation	ANTI	31	2	False	red	180	[1035 1515  405  675]	[405 885 405 675]
228.754	0.2	2809062	2809297	BlankScreen	ANTI	31	2	False	red	180	[1035 1515  405  675]	[405 885 405 675]
228.989	1.0	2809297	2810297	ELCue	ANTI	31	2	False	red	180	[1035 1515  405  675]	[405 885 405 675]
230.492	2.0	2810800	2812832	ShowFixation	ANTI	32	2	False	red	460	[405 885 405 675]	[1035 1515  405  675]
232.524	0.2	2812832	2813067	BlankScreen	ANTI	32	2	False	red	460	[405 885 405 675]	[1035 1515  405  675]
232.759	1.0	2813067	2814067	ELCue	ANTI	32	2	False	red	460	[405 885 405 675]	[1035 1515  405  675]
234.186	6.0	2814494	2820519	ShowFixation	VGS	33	2	False	lime	180	[405 885 405 675]	[1035 1515  405  675]
240.211	0.2	2820519	2820758	BlankScreen	VGS	33	2	False	lime	180	[405 885 405 675]	[1035 1515  405  675]
240.45	1.0	2820758	2821758	ELCue	VGS	33	2	False	lime	180	[405 885 405 675]	[1035 1515  405  675]
241.873	2.0	2822181	2824210	ShowFixation	VGS	34	2	False	lime	40	[ 90 570 405 675]	[1350 1830  405  675]
243.902	0.2	2824210	2824445	BlankScreen	VGS	34	2	False	lime	40	[ 90 570 405 675]	[1350 1830  405  675]
244.137	1.0	2824445	2825445	ELCue	VGS	34	2	False	lime	40	[ 90 570 405 675]	[1350 1830  405  675]
245.567	2.0	2825875	2827913	ShowFixation	VGS	35	2	False	lime	460	[1035 1515  405  675]	[405 885 405 675]
247.605	0.2	2827913	2828149	BlankScreen	VGS	35	2	False	lime	460	[1035 1515  405  675]	[405 885 405 675]
247.841	1.0	2828149	2829149	ELCue	VGS	35	2	False	lime	460	[1035 1515  405  675]	[405 885 405 675]
249.268	2.0	2829576	2831600	ShowFixation	ANTI	36	2	False	red	600	[ 90 570 405 675]	[1350 1830  405  675]
251.292	0.2	2831600	2831836	BlankScreen	ANTI	36	2	False	red	600	[ 90 570 405 675]	[1350 1830  405  675]
251.528	1.0	2831836	2832836	ELCue	ANTI	36	2	False	red	600	[ 90 570 405 675]	[1350 1830  405  675]
252.953	2.0	2833261	2835287	ShowFixation	ANTI	37	2	False	red	40	[1350 1830  405  675]	[ 90 570 405 675]
254.979	0.2	2835287	2835523	BlankScreen	ANTI	37	2	False	red	40	[1350 1830  405  675]	[ 90 570 405 675]
255.215	1.0	2835523	2836523	ELCue	ANTI	37	2	False	red	40	[1350 1830  405  675]	[ 90 570 405 675]
256.637	6.0	2836945	2842974	ShowFixation	VGS	38	2	False	lime	460	[1035 1515  405  675]	[405 885 405 675]
262.666	0.2	2842974	2843214	BlankScreen	VGS	38	2	False	lime	460	[1035 1515  405  675]	[405 885 405 675]
262.906	1.0	2843214	2844214	ELCue	VGS	38	2	False	lime	460	[1035 1515  405  675]	[405 885 405 675]
264.327	2.0	2844635	2846665	ShowFixation	ANTI	39	2	False	red	600	[ 90 570 405 675]	[1350 1830  405  675]
266.357	0.2	2846665	2846901	BlankScreen	ANTI	39	2	False	red	600	[ 90 570 405 675]	[1350 1830  405  675]
266.593	1.0	2846901	2847901	ELCue	ANTI	39	2	False	red	600	[ 90 570 405 675]	[1350 1830  405  675]
268.019	6.0	2848327	2854352	ShowFixation	VGS	40	2	False	lime	40	[ 90 570 405 675]	[1350 1830  405  675]
274.044	0.2	2854352	2854592	BlankScreen	VGS	40	2	False	lime	40	[ 90 570 405 675]	[1350 1830  405  675]
274.284	1.0	2854592	2855592	ELCue	VGS	40	2	False	lime	40	[ 90 570 405 675]	[1350 1830  405  675]
275.708	2.0	2856016	2858043	ShowFixation	VGS	41	2	False	lime	180	[405 885 405 675]	[1035 1515  405  675]
277.735	0.2	2858043	2858279	BlankScreen	VGS	41	2	False	lime	180	[405 885 405 675]	[1035 1515  405  675]
277.971	1.0	2858279	2859279	ELCue	VGS	41	2	False	lime	180	[405 885 405 675]	[1035 1515  405  675]
279.396	2.0	2859704	2861730	ShowFixation	VGS	42	2	False	lime	600	[1350 1830  405  675]	[ 90 570 405 675]
281.422	0.2	2861730	2861965	BlankScreen	VGS	42	2	False	lime	600	[1350 1830  405  675]	[ 90 570 405 675]
281.657	1.0	2861965	2862965	ELCue	VGS	42	2	False	lime	600	[1350 1830  405  675]	[ 90 570 405 675]
283.087	6.0	2863395	2869434	ShowFixation	VGS	43	2	False	lime	460	[1035 1515  405  675]	[405 885 405 675]
289.126	0.2	2869434	2869673	BlankScreen	VGS	43	2	False	lime	460	[1035 1515  405  675]	[405 885 405 675]
289.365	1.0	2869673	2870673	ELCue	VGS	43	2	False	lime	460	[1035 1515  405  675]	[405 885 405 675]
290.785	6.0	2871093	2877125	ShowFixation	ANTI	44	2	False	red	40	[1350 1830  405  675]	[ 90 570 405 675]
296.818	0.2	2877126	2877364	BlankScreen	ANTI	44	2	False	red	40	[1350 1830  405  675]	[ 90 570 405 675]
297.057	1.0	2877365	2878365	ELCue	ANTI	44	2	False	red	40	[1350 1830  405  675]	[ 90 570 405 675]
298.478	2.0	2878786	2880817	ShowFixation	ANTI	45	2	False	red	40	[1350 1830  405  675]	[ 90 570 405 675]
300.509	0.2	2880817	2881051	BlankScreen	ANTI	45	2	False	red	40	[1350 1830  405  675]	[ 90 570 405 675]
300.744	1.0	2881052	2882052	ELCue	ANTI	45	2	False	red	40	[1350 1830  405  675]	[ 90 570 405 675]
302.167	2.0	2882475	2884504	ShowFixation	ANTI	46	2	False	red	180	[1035 1515  405  675]	[405 885 405 675]
304.196	0.2	2884504	2884739	BlankScreen	ANTI	46	2	False	red	180	[1035 1515  405  675]	[405 885 405 675]
304.431	1.0	2884739	2885739	ELCue	ANTI	46	2	False	red	180	[1035 1515  405  675]	[405 885 405 675]
305.858	2.0	2886166	2888207	ShowFixation	VGS	47	2	False	lime	600	[1350 1830  405  675]	[ 90 570 405 675]
307.899	0.2	2888207	2888443	BlankScreen	VGS	47	2	False	lime	600	[1350 1830  405  675]	[ 90 570 405 675]
308.135	1.0	2888443	2889443	ELCue	VGS	47	2	False	lime	600	[1350 1830  405  675]	[ 90 570 405 675]
309.562	6.0	2889870	2895911	ShowFixation	ANTI	48	2	False	red	600	[ 90 570 405 675]	[1350 1830  405  675]
315.603	0.2	2895911	2896150	BlankScreen	ANTI	48	2	False	red	600	[ 90 570 405 675]	[1350 1830  405  675]
315.842	1.0	2896150	2897150	ELCue	ANTI	48	2	False	red	600	[ 90 570 405 675]	[1350 1830  405  675]
361.101	6.0	2941409	2947445	ShowFixation	VGS	49	3	False	lime	180	[405 885 405 675]	[1035 1515  405  675]
367.137	0.2	2947445	2947684	BlankScreen	VGS	49	3	False	lime	180	[405 885 405 675]	[1035 1515  405  675]
367.376	1.0	2947684	2948684	ELCue	VGS	49	3	False	lime	180	[405 885 405 675]	[1035 1515  405  675]
368.799	6.0	2949107	2955136	ShowFixation	ANTI	50	3	False	red	600	[ 90 570 405 675]	[1350 1830  405  675]
374.828	0.2	2955136	2955375	BlankScreen	ANTI	50	3	False	red	600	[ 90 570 405 675]	[1350 1830  405  675]
375.067	1.0	2955375	2956375	ELCue	ANTI	50	3	False	red	600	[ 90 570 405 675]	[1350 1830  405  675]
376.494	6.0	2956802	2962827	ShowFixation	ANTI	51	3	False	red	40	[1350 1830  405  675]	[ 90 570 405 675]
382.519	0.2	2962827	2963066	BlankScreen	ANTI	51	3	False	red	40	[1350 1830  405  675]	[ 90 570 405 675]
382.758	1.0	2963066	2964066	ELCue	ANTI	51	3	False	red	40	[1350 1830  405  675]	[ 90 570 405 675]
384.186	6.0	2964494	2970535	ShowFixation	VGS	52	3	False	lime	40	[ 90 570 405 675]	[1350 1830  405  675]
390.227	0.2	2970535	2970774	BlankScreen	VGS	52	3	False	lime	40	[ 90 570 405 675]	[1350 1830  405  675]
390.466	1.0	2970774	2971774	ELCue	VGS	52	3	False	lime	40	[ 90 570 405 675]	[1350 1830  405  675]
391.893	6.0	2972201	2978225	ShowFixation	ANTI	53	3	False	red	180	[1035 1515  405  675]	[405 885 405 675]
397.917	0.2	2978225	2978465	BlankScreen	ANTI	53	3	False	red	180	[1035 1515  405  675]	[405 885 405 675]
398.157	1.0	2978465	2979465	ELCue	ANTI	53	3	False	red	180	[1035 1515  405  675]	[405 885 405 675]
399.561	2.0	2979869	2981900	ShowFixation	VGS	54	3	False	lime	180	[405 885 405 675]	[1035 1515  405  675]
401.592	0.2	2981900	2982135	BlankScreen	VGS	54	3	False	lime	180	[405 885 405 675]	[1035 1515  405  675]
401.827	1.0	2982135	2983135	ELCue	VGS	54	3	False	lime	180	[405 885 405 675]	[1035 1515  405  675]
403.258	6.0	2983566	2989603	ShowFixation	ANTI	55	3	False	red	40	[1350 1830  405  675]	[ 90 570 405 675]
409.295	0.2	2989603	2989843	BlankScreen	ANTI	55	3	False	red	40	[1350 1830  405  675]	[ 90 570 405 675]
409.535	1.0	2989843	2990843	ELCue	ANTI	55	3	False	red	40	[1350 1830  405  675]	[ 90 570 405 675]
410.961	2.0	2991269	2993294	ShowFixation	VGS	56	3	False	lime	600	[1350 1830  405  675]	[ 90 570 405 675]
412.986	0.2	2993294	2993530	BlankScreen	VGS	56	3	False	lime	600	[1350 1830  405  675]	[ 90 570 405 675]
413.222	1.0	2993530	2994530	ELCue	VGS	56	3	False	lime	600	[1350 1830  405  675]	[ 90 570 405 675]
414.65	6.0	2994958	3000998	ShowFixation	VGS	57	3	False	lime	180	[405 885 405 675]	[1035 1515  405  675]
420.69	0.2	3000998	3001237	BlankScreen	VGS	57	3	False	lime	180	[405 885 405 675]	[1035 1515  405  675]
420.929	1.0	3001237	3002237	ELCue	VGS	57	3	False	lime	180	[405 885 405 675]	[1035 1515  405  675]
422.358	2.0	3002666	3004705	ShowFixation	ANTI	58	3	False	red	600	[ 90 570 405 675]	[1350 1830  405  675]
424.397	0.2	3004705	3004941	BlankScreen	ANTI	58	3	False	red	600	[ 90 570 405 675]	[1350 1830  405  675]
424.633	1.0	3004941	3005941	ELCue	ANTI	58	3	False	red	600	[ 90 570 405 675]	[1350 1830  405  675]
426.057	2.0	3006365	3008392	ShowFixation	ANTI	59	3	False	red	180	[1035 1515  405  675]	[405 885 405 675]
428.084	0.2	3008392	3008628	BlankScreen	ANTI	59	3	False	red	180	[1035 1515  405  675]	[405 885 405 675]
428.321	1.0	3008629	3009629	ELCue	ANTI	59	3	False	red	180	[1035 1515  405  675]	[405 885 405 675]
429.746	2.0	3010054	3012080	ShowFixation	ANTI	60	3	False	red	460	[405 885 405 675]	[1035 1515  405  675]
431.772	0.2	3012080	3012315	BlankScreen	ANTI	60	3	False	red	460	[405 885 405 675]	[1035 1515  405  675]
432.008	1.0	3012316	3013316	ELCue	ANTI	60	3	False	red	460	[405 885 405 675]	[1035 1515  405  675]
433.435	6.0	3013743	3019784	ShowFixation	ANTI	61	3	False	red	180	[1035 1515  405  675]	[405 885 405 675]
439.476	0.2	3019784	3020023	BlankScreen	ANTI	61	3	False	red	180	[1035 1515  405  675]	[405 885 405 675]
439.715	1.0	3020023	3021023	ELCue	ANTI	61	3	False	red	180	[1035 1515  405  675]	[405 885 405 675]
441.14	2.0	3021448	3023475	ShowFixation	VGS	62	3	False	lime	40	[ 90 570 405 675]	[1350 1830  405  675]
443.167	0.2	3023475	3023710	BlankScreen	VGS	62	3	False	lime	40	[ 90 570 405 675]	[1350 1830  405  675]
443.402	1.0	3023710	3024710	ELCue	VGS	62	3	False	lime	40	[ 90 570 405 675]	[1350 1830  405  675]
444.829	2.0	3025137	3027179	ShowFixation	ANTI	63	3	False	red	40	[1350 1830  405  675]	[ 90 570 405 675]
446.871	0.2	3027179	3027414	BlankScreen	ANTI	63	3	False	red	40	[1350 1830  405  675]	[ 90 570 405 675]
447.106	1.0	3027414	3028414	ELCue	ANTI	63	3	False	red	40	[1350 1830  405  675]	[ 90 570 405 675]
448.529	6.0	3028837	3034866	ShowFixation	VGS	64	3	False	lime	600	[1350 1830  405  675]	[ 90 570 405 675]
454.558	0.2	3034866	3035105	BlankScreen	VGS	64	3	False	lime	600	[1350 1830  405  675]	[ 90 570 405 675]
454.797	1.0	3035105	3036105	ELCue	VGS	64	3	False	lime	600	[1350 1830  405  675]	[ 90 570 405 675]
456.218	6.0	3036526	3042557	ShowFixation	VGS	65	3	False	lime	460	[1035 1515  405  675]	[405 885 405 675]
462.249	0.2	3042557	3042796	BlankScreen	VGS	65	3	False	lime	460	[1035 1515  405  675]	[405 885 405 675]
462.488	1.0	3042796	3043796	ELCue	VGS	65	3	False	lime	460	[1035 1515  405  675]	[405 885 405 675]
463.908	2.0	3044216	3046247	ShowFixation	ANTI	66	3	False	red	40	[1350 1830  405  675]	[ 90 570 405 675]
465.939	0.2	3046247	3046483	BlankScreen	ANTI	66	3	False	red	40	[1350 1830  405  675]	[ 90 570 405 675]
466.175	1.0	3046483	3047483	ELCue	ANTI	66	3	False	red	40	[1350 1830  405  675]	[ 90 570 405 675]
467.599	6.0	3047907	3053934	ShowFixation	ANTI	67	3	False	red	460	[405 885 405 675]	[1035 1515  405  675]
473.626	0.2	3053934	3054174	BlankScreen	ANTI	67	3	False	red	460	[405 885 405 675]	[1035 1515  405  675]
473.866	1.0	3054174	3055174	ELCue	ANTI	67	3	False	red	460	[405 885 405 675]	[1035 1515  405  675]
475.29	2.0	3055598	3057625	ShowFixation	VGS	68	3	False	lime	40	[ 90 570 405 675]	[1350 1830  405  675]
477.317	0.2	3057625	3057861	BlankScreen	VGS	68	3	False	lime	40	[ 90 570 405 675]	[1350 1830  405  675]
477.553	1.0	3057861	3058861	ELCue	VGS	68	3	False	lime	40	[ 90 570 405 675]	[1350 1830  405  675]
478.977	2.0	3059285	3061312	ShowFixation	VGS	69	3	False	lime	180	[405 885 405 675]	[1035 1515  405  675]
481.004	0.2	3061312	3061548	BlankScreen	VGS	69	3	False	lime	180	[405 885 405 675]	[1035 1515  405  675]
481.24	1.0	3061548	3062548	ELCue	VGS	69	3	False	lime	180	[405 885 405 675]	[1035 1515  405  675]
482.666	6.0	3062974	3068999	ShowFixation	VGS	70	3	False	lime	40	[ 90 570 405 675]	[1350 1830  405  675]
488.691	0.2	3068999	3069239	BlankScreen	VGS	70	3	False	lime	40	[ 90 570 405 675]	[1350 1830  405  675]
488.931	1.0	3069239	3070239	ELCue	VGS	70	3	False	lime	40	[ 90 570 405 675]	[1350 1830  405  675]
490.355	2.0	3070663	3072690	ShowFixation	ANTI	71	3	False	red	180	[1035 1515  405  675]	[405 885 405 675]
492.382	0.2	3072690	3072926	BlankScreen	ANTI	71	3	False	red	180	[1035 1515  405  675]	[405 885 405 675]
492.618	1.0	3072926	3073926	ELCue	ANTI	71	3	False	red	180	[1035 1515  405  675]	[405 885 405 675]
494.042	6.0	3074350	3080377	ShowFixation	ANTI	72	3	False	red	460	[405 885 405 675]	[1035 1515  405  675]
500.069	0.2	3080377	3080616	BlankScreen	ANTI	72	3	False	red	460	[405 885 405 675]	[1035 1515  405  675]
500.308	1.0	3080616	3081616	ELCue	ANTI	72	3	False	red	460	[405 885 405 675]	[1035 1515  405  675]
501.738	2.0	3082046	3084085	ShowFixation	ANTI	73	3	False	red	460	[405 885 405 675]	[1035 1515  405  675]
503.777	0.2	3084085	3084320	BlankScreen	ANTI	73	3	False	red	460	[405 885 405 675]	[1035 1515  405  675]
504.012	1.0	3084320	3085320	ELCue	ANTI	73	3	False	red	460	[405 885 405 675]	[1035 1515  405  675]
505.438	2.0	3085746	3087772	ShowFixation	VGS	74	3	False	lime	600	[1350 1830  405  675]	[ 90 570 405 675]
507.464	0.2	3087772	3088007	BlankScreen	VGS	74	3	False	lime	600	[1350 1830  405  675]	[ 90 570 405 675]
507.699	1.0	3088007	3089007	ELCue	VGS	74	3	False	lime	600	[1350 1830  405  675]	[ 90 570 405 675]
509.128	2.0	3089436	3091475	ShowFixation	VGS	75	3	False	lime	460	[1035 1515  405  675]	[405 885 405 675]
511.167	0.2	3091475	3091711	BlankScreen	VGS	75	3	False	lime	460	[1035 1515  405  675]	[405 885 405 675]
511.403	1.0	3091711	3092711	ELCue	VGS	75	3	False	lime	460	[1035 1515  405  675]	[405 885 405 675]
512.829	6.0	3093137	3099162	ShowFixation	ANTI	76	3	False	red	600	[ 90 570 405 675]	[1350 1830  405  675]
518.854	0.2	3099162	3099402	BlankScreen	ANTI	76	3	False	red	600	[ 90 570 405 675]	[1350 1830  405  675]
519.094	1.0	3099402	3100402	ELCue	ANTI	76	3	False	red	600	[ 90 570 405 675]	[1350 1830  405  675]
520.522	6.0	3100830	3106870	ShowFixation	VGS	77	3	False	lime	600	[1350 1830  405  675]	[ 90 570 405 675]
526.562	0.2	3106870	3107109	BlankScreen	VGS	77	3	False	lime	600	[1350 1830  405  675]	[ 90 570 405 675]
526.801	1.0	3107109	3108109	ELCue	VGS	77	3	False	lime	600	[1350 1830  405  675]	[ 90 570 405 675]
528.227	2.0	3108535	3110561	ShowFixation	VGS	78	3	False	lime	460	[1035 1515  405  675]	[405 885 405 675]
530.253	0.2	3110561	3110796	BlankScreen	VGS	78	3	False	lime	460	[1035 1515  405  675]	[405 885 405 675]
530.488	1.0	3110796	3111796	ELCue	VGS	78	3	False	lime	460	[1035 1515  405  675]	[405 885 405 675]
531.914	6.0	3112222	3118248	ShowFixation	VGS	79	3	False	lime	460	[1035 1515  405  675]	[405 885 405 675]
537.94	0.2	3118248	3118487	BlankScreen	VGS	79	3	False	lime	460	[1035 1515  405  675]	[405 885 405 675]
538.179	1.0	3118487	3119487	ELCue	VGS	79	3	False	lime	460	[1035 1515  405  675]	[405 885 405 675]
539.608	2.0	3119916	3121955	ShowFixation	ANTI	80	3	False	red	600	[ 90 570 405 675]	[1350 1830  405  675]
541.647	0.2	3121955	3122191	BlankScreen	ANTI	80	3	False	red	600	[ 90 570 405 675]	[1350 1830  405  675]
541.883	1.0	3122191	3123191	ELCue	ANTI	80	3	False	red	600	[ 90 570 405 675]	[1350 1830  405  675]
570.364	6.0	3150672	3156703	ShowFixation	VGS	81	4	False	lime	460	[1035 1515  405  675]	[405 885 405 675]
576.395	0.2	3156703	3156943	BlankScreen	VGS	81	4	False	lime	460	[1035 1515  405  675]	[405 885 405 675]
576.635	1.0	3156943	3157943	ELCue	VGS	81	4	False	lime	460	[1035 1515  405  675]	[405 885 405 675]
578.021	6.0	3158329	3164361	ShowFixation	VGS	82	4	False	lime	460	[1035 1515  405  675]	[405 885 405 675]
584.053	0.2	3164361	3164600	BlankScreen	VGS	82	4	False	lime	460	[1035 1515  405  675]	[405 885 405 675]
584.292	1.0	3164600	3165600	ELCue	VGS	82	4	False	lime	460	[1035 1515  405  675]	[405 885 405 675]
585.716	2.0	3166024	3168052	ShowFixation	ANTI	83	4	False	red	600	[ 90 570 405 675]	[1350 1830  405  675]
587.744	0.2	3168052	3168287	BlankScreen	ANTI	83	4	False	red	600	[ 90 570 405 675]	[1350 1830  405  675]
587.979	1.0	3168287	3169287	ELCue	ANTI	83	4	False	red	600	[ 90 570 405 675]	[1350 1830  405  675]
589.403	2.0	3169711	3171739	ShowFixation	ANTI	84	4	False	red	460	[405 885 405 675]	[1035 1515  405  675]
591.431	0.2	3171739	3171974	BlankScreen	ANTI	84	4	False	red	460	[405 885 405 675]	[1035 1515  405  675]
591.666	1.0	3171974	3172974	ELCue	ANTI	84	4	False	red	460	[405 885 405 675]	[1035 1515  405  675]
593.096	6.0	3173404	3179443	ShowFixation	ANTI	85	4	False	red	600	[ 90 570 405 675]	[1350 1830  405  675]
599.135	0.2	3179443	3179682	BlankScreen	ANTI	85	4	False	red	600	[ 90 570 405 675]	[1350 1830  405  675]
599.374	1.0	3179682	3180682	ELCue	ANTI	85	4	False	red	600	[ 90 570 405 675]	[1350 1830  405  675]
600.801	6.0	3181109	3187150	ShowFixation	VGS	86	4	False	lime	180	[405 885 405 675]	[1035 1515  405  675]
606.842	0.2	3187150	3187389	BlankScreen	VGS	86	4	False	lime	180	[405 885 405 675]	[1035 1515  405  675]
607.081	1.0	3187389	3188389	ELCue	VGS	86	4	False	lime	180	[405 885 405 675]	[1035 1515  405  675]
608.504	6.0	3188812	3194841	ShowFixation	ANTI	87	4	False	red	180	[1035 1515  405  675]	[405 885 405 675]
614.533	0.2	3194841	3195080	BlankScreen	ANTI	87	4	False	red	180	[1035 1515  405  675]	[405 885 405 675]
614.772	1.0	3195080	3196080	ELCue	ANTI	87	4	False	red	180	[1035 1515  405  675]	[405 885 405 675]
616.197	2.0	3196505	3198532	ShowFixation	VGS	88	4	False	lime	40	[ 90 570 405 675]	[1350 1830  405  675]
618.224	0.2	3198532	3198767	BlankScreen	VGS	88	4	False	lime	40	[ 90 570 405 675]	[1350 1830  405  675]
618.459	1.0	3198767	3199767	ELCue	VGS	88	4	False	lime	40	[ 90 570 405 675]	[1350 1830  405  675]
619.882	2.0	3200190	3202219	ShowFixation	ANTI	89	4	False	red	460	[405 885 405 675]	[1035 1515  405  675]
621.911	0.2	3202219	3202454	BlankScreen	ANTI	89	4	False	red	460	[405 885 405 675]	[1035 1515  405  675]
622.146	1.0	3202454	3203454	ELCue	ANTI	89	4	False	red	460	[405 885 405 675]	[1035 1515  405  675]
623.574	6.0	3203882	3209923	ShowFixation	ANTI	90	4	False	red	40	[1350 1830  405  675]	[ 90 570 405 675]
629.615	0.2	3209923	3210162	BlankScreen	ANTI	90	4	False	red	40	[1350 1830  405  675]	[ 90 570 405 675]
629.854	1.0	3210162	3211162	ELCue	ANTI	90	4	False	red	40	[1350 1830  405  675]	[ 90 570 405 675]
631.278	6.0	3211586	3217614	ShowFixation	ANTI	91	4	False	red	40	[1350 1830  405  675]	[ 90 570 405 675]
637.306	0.2	3217614	3217853	BlankScreen	ANTI	91	4	False	red	40	[1350 1830  405  675]	[ 90 570 405 675]
637.545	1.0	3217853	3218853	ELCue	ANTI	91	4	False	red	40	[1350 1830  405  675]	[ 90 570 405 675]
638.969	6.0	3219277	3225304	ShowFixation	VGS	92	4	False	lime	40	[ 90 570 405 675]	[1350 1830  405  675]
644.996	0.2	3225304	3225544	BlankScreen	VGS	92	4	False	lime	40	[ 90 570 405 675]	[1350 1830  405  675]
645.236	1.0	3225544	3226544	ELCue	VGS	92	4	False	lime	40	[ 90 570 405 675]	[1350 1830  405  675]
646.663	2.0	3226971	3228995	ShowFixation	VGS	93	4	False	lime	460	[1035 1515  405  675]	[405 885 405 675]
648.687	0.2	3228995	3229231	BlankScreen	VGS	93	4	False	lime	460	[1035 1515  405  675]	[405 885 405 675]
648.923	1.0	3229231	3230231	ELCue	VGS	93	4	False	lime	460	[1035 1515  405  675]	[405 885 405 675]
650.344	2.0	3230652	3232682	ShowFixation	ANTI	94	4	False	red	180	[1035 1515  405  675]	[405 885 405 675]
652.374	0.2	3232682	3232918	BlankScreen	ANTI	94	4	False	red	180	[1035 1515  405  675]	[405 885 405 675]
652.61	1.0	3232918	3233918	ELCue	ANTI	94	4	False	red	180	[1035 1515  405  675]	[405 885 405 675]
654.037	2.0	3234345	3236369	ShowFixation	VGS	95	4	False	lime	600	[1350 1830  405  675]	[ 90 570 405 675]
656.061	0.2	3236369	3236605	BlankScreen	VGS	95	4	False	lime	600	[1350 1830  405  675]	[ 90 570 405 675]
656.297	1.0	3236605	3237605	ELCue	VGS	95	4	False	lime	600	[1350 1830  405  675]	[ 90 570 405 675]
657.723	2.0	3238031	3240056	ShowFixation	ANTI	96	4	False	red	40	[1350 1830  405  675]	[ 90 570 405 675]
659.748	0.2	3240056	3240292	BlankScreen	ANTI	96	4	False	red	40	[1350 1830  405  675]	[ 90 570 405 675]
659.984	1.0	3240292	3241292	ELCue	ANTI	96	4	False	red	40	[1350 1830  405  675]	[ 90 570 405 675]
661.41	2.0	3241718	3243743	ShowFixation	VGS	97	4	False	lime	180	[405 885 405 675]	[1035 1515  405  675]
663.435	0.2	3243743	3243979	BlankScreen	VGS	97	4	False	lime	180	[405 885 405 675]	[1035 1515  405  675]
663.671	1.0	3243979	3244979	ELCue	VGS	97	4	False	lime	180	[405 885 405 675]	[1035 1515  405  675]
665.096	6.0	3245404	3251430	ShowFixation	ANTI	98	4	False	red	460	[405 885 405 675]	[1035 1515  405  675]
671.122	0.2	3251430	3251670	BlankScreen	ANTI	98	4	False	red	460	[405 885 405 675]	[1035 1515  405  675]
671.362	1.0	3251670	3252670	ELCue	ANTI	98	4	False	red	460	[405 885 405 675]	[1035 1515  405  675]
672.77	2.0	3253078	3255104	ShowFixation	ANTI	99	4	False	red	40	[1350 1830  405  675]	[ 90 570 405 675]
674.796	0.2	3255104	3255340	BlankScreen	ANTI	99	4	False	red	40	[1350 1830  405  675]	[ 90 570 405 675]
675.032	1.0	3255340	3256340	ELCue	ANTI	99	4	False	red	40	[1350 1830  405  675]	[ 90 570 405 675]
676.455	2.0	3256763	3258791	ShowFixation	VGS	100	4	False	lime	40	[ 90 570 405 675]	[1350 1830  405  675]
678.483	0.2	3258791	3259027	BlankScreen	VGS	100	4	False	lime	40	[ 90 570 405 675]	[1350 1830  405  675]
678.719	1.0	3259027	3260027	ELCue	VGS	100	4	False	lime	40	[ 90 570 405 675]	[1350 1830  405  675]
680.146	2.0	3260454	3262478	ShowFixation	ANTI	101	4	False	red	600	[ 90 570 405 675]	[1350 1830  405  675]
682.17	0.2	3262478	3262714	BlankScreen	ANTI	101	4	False	red	600	[ 90 570 405 675]	[1350 1830  405  675]
682.406	1.0	3262714	3263714	ELCue	ANTI	101	4	False	red	600	[ 90 570 405 675]	[1350 1830  405  675]
683.833	6.0	3264141	3270165	ShowFixation	ANTI	102	4	False	red	180	[1035 1515  405  675]	[405 885 405 675]
689.857	0.2	3270165	3270405	BlankScreen	ANTI	102	4	False	red	180	[1035 1515  405  675]	[405 885 405 675]
690.098	1.0	3270406	3271406	ELCue	ANTI	102	4	False	red	180	[1035 1515  405  675]	[405 885 405 675]
691.523	6.0	3271831	3277856	ShowFixation	VGS	103	4	False	lime	180	[405 885 405 675]	[1035 1515  405  675]
697.549	0.2	3277857	3278096	BlankScreen	VGS	103	4	False	lime	180	[405 885 405 675]	[1035 1515  405  675]
697.789	1.0	3278097	3279097	ELCue	VGS	103	4	False	lime	180	[405 885 405 675]	[1035 1515  405  675]
699.181	6.0	3279489	3285515	ShowFixation	VGS	104	4	False	lime	40	[ 90 570 405 675]	[1350 1830  405  675]
705.207	0.2	3285515	3285754	BlankScreen	VGS	104	4	False	lime	40	[ 90 570 405 675]	[1350 1830  405  675]
705.446	1.0	3285754	3286754	ELCue	VGS	104	4	False	lime	40	[ 90 570 405 675]	[1350 1830  405  675]
706.87	2.0	3287178	3289206	ShowFixation	VGS	105	4	False	lime	180	[405 885 405 675]	[1035 1515  405  675]
708.898	0.2	3289206	3289441	BlankScreen	VGS	105	4	False	lime	180	[405 885 405 675]	[1035 1515  405  675]
709.133	1.0	3289441	3290441	ELCue	VGS	105	4	False	lime	180	[405 885 405 675]	[1035 1515  405  675]
710.559	2.0	3290867	3292893	ShowFixation	VGS	106	4	False	lime	460	[1035 1515  405  675]	[405 885 405 675]
712.585	0.2	3292893	3293128	BlankScreen	VGS	106	4	False	lime	460	[1035 1515  405  675]	[405 885 405 675]
712.82	1.0	3293128	3294128	ELCue	VGS	106	4	False	lime	460	[1035 1515  405  675]	[405 885 405 675]
714.231	2.0	3294539	3296580	ShowFixation	VGS	107	4	False	lime	600	[1350 1830  405  675]	[ 90 570 405 675]
716.272	0.2	3296580	3296815	BlankScreen	VGS	107	4	False	lime	600	[1350 1830  405  675]	[ 90 570 405 675]
716.507	1.0	3296815	3297815	ELCue	VGS	107	4	False	lime	600	[1350 1830  405  675]	[ 90 570 405 675]
717.933	2.0	3298241	3300267	ShowFixation	ANTI	108	4	False	red	180	[1035 1515  405  675]	[405 885 405 675]
719.959	0.2	3300267	3300502	BlankScreen	ANTI	108	4	False	red	180	[1035 1515  405  675]	[405 885 405 675]
720.194	1.0	3300502	3301502	ELCue	ANTI	108	4	False	red	180	[1035 1515  405  675]	[405 885 405 675]
721.617	6.0	3301925	3307954	ShowFixation	VGS	109	4	False	lime	600	[1350 1830  405  675]	[ 90 570 405 675]
727.646	0.2	3307954	3308193	BlankScreen	VGS	109	4	False	lime	600	[1350 1830  405  675]	[ 90 570 405 675]
727.885	1.0	3308193	3309193	ELCue	VGS	109	4	False	lime	600	[1350 1830  405  675]	[ 90 570 405 675]
729.311	6.0	3309619	3315645	ShowFixation	VGS	110	4	False	lime	600	[1350 1830  405  675]	[ 90 570 405 675]
735.337	0.2	3315645	3315884	BlankScreen	VGS	110	4	False	lime	600	[1350 1830  405  675]	[ 90 570 405 675]
735.576	1.0	3315884	3316884	ELCue	VGS	110	4	False	lime	600	[1350 1830  405  675]	[ 90 570 405 675]
737.001	6.0	3317309	3323335	ShowFixation	ANTI	111	4	False	red	600	[ 90 570 405 675]	[1350 1830  405  675]
743.027	0.2	3323335	3323575	BlankScreen	ANTI	111	4	False	red	600	[ 90 570 405 675]	[1350 1830  405  675]
743.267	1.0	3323575	3324575	ELCue	ANTI	111	4	False	red	600	[ 90 570 405 675]	[1350 1830  405  675]
744.693	6.0	3325001	3331026	ShowFixation	ANTI	112	4	False	red	460	[405 885 405 675]	[1035 1515  405  675]
750.718	0.2	3331026	3331266	BlankScreen	ANTI	112	4	False	red	460	[405 885 405 675]	[1035 1515  405  675]
750.958	1.0	3331266	3332266	ELCue	ANTI	112	4	False	red	460	[405 885 405 675]	[1035 1515  405  675]
