onset	duration	startTime	stopTime	eventIdentifier	trial_type	trial_number	block_number	is_practice	fixation_color	cue_side	aoi_correct	aoi_incorrect
0.151	6.0	2231603	2237643	ShowFixation	VGS	1	1	True	lime	180	[405 885 405 675]	[1035 1515  405  675]
6.191	0.2	2237643	2237883	BlankScreen	VGS	1	1	True	lime	180	[405 885 405 675]	[1035 1515  405  675]
6.431	1.0	2237883	2238923	ELCue	VGS	1	1	True	lime	180	[405 885 405 675]	[1035 1515  405  675]
8.094	2.0	2239546	2241968	ShowFixation	VGS	2	1	True	lime	600	[1350 1830  405  675]	[ 90 570 405 675]
10.516	0.2	2241968	2242204	BlankScreen	VGS	2	1	True	lime	600	[1350 1830  405  675]	[ 90 570 405 675]
10.752	1.0	2242204	2243244	ELCue	VGS	2	1	True	lime	600	[1350 1830  405  675]	[ 90 570 405 675]
12.206	6.0	2243658	2250289	ShowFixation	VGS	3	1	True	lime	40	[ 90 570 405 675]	[1350 1830  405  675]
18.837	0.2	2250289	2250529	BlankScreen	VGS	3	1	True	lime	40	[ 90 570 405 675]	[1350 1830  405  675]
19.077	1.0	2250529	2251569	ELCue	VGS	3	1	True	lime	40	[ 90 570 405 675]	[1350 1830  405  675]
20.532	2.0	2251984	2254614	ShowFixation	ANTI	4	1	True	red	40	[1350 1830  405  675]	[ 90 570 405 675]
23.162	0.2	2254614	2254849	BlankScreen	ANTI	4	1	True	red	40	[1350 1830  405  675]	[ 90 570 405 675]
23.397	1.0	2254849	2255890	ELCue	ANTI	4	1	True	red	40	[1350 1830  405  675]	[ 90 570 405 675]
24.853	6.0	2256305	2262935	ShowFixation	ANTI	5	1	True	red	600	[ 90 570 405 675]	[1350 1830  405  675]
31.483	0.2	2262935	2263174	BlankScreen	ANTI	5	1	True	red	600	[ 90 570 405 675]	[1350 1830  405  675]
31.722	1.0	2263174	2264215	ELCue	ANTI	5	1	True	red	600	[ 90 570 405 675]	[1350 1830  405  675]
33.183	6.0	2264635	2271260	ShowFixation	ANTI	6	1	True	red	180	[1035 1515  405  675]	[405 885 405 675]
39.808	0.2	2271260	2271499	BlankScreen	ANTI	6	1	True	red	180	[1035 1515  405  675]	[405 885 405 675]
40.047	1.0	2271499	2272539	ELCue	ANTI	6	1	True	red	180	[1035 1515  405  675]	[405 885 405 675]
41.486	2.0	2272938	2275568	ShowFixation	VGS	7	1	True	lime	40	[ 90 570 405 675]	[1350 1830  405  675]
44.116	0.2	2275568	2275787	BlankScreen	VGS	7	1	True	lime	40	[ 90 570 405 675]	[1350 1830  405  675]
44.335	1.0	2275787	2276810	ELCue	VGS	7	1	True	lime	40	[ 90 570 405 675]	[1350 1830  405  675]
45.777	6.0	2277229	2283856	ShowFixation	VGS	8	1	True	lime	460	[1035 1515  405  675]	[405 885 405 675]
52.404	0.2	2283856	2284095	BlankScreen	VGS	8	1	True	lime	460	[1035 1515  405  675]	[405 885 405 675]
52.643	1.0	2284095	2285135	ELCue	VGS	8	1	True	lime	460	[1035 1515  405  675]	[405 885 405 675]
54.1	6.0	2285552	2292164	ShowFixation	ANTI	9	1	True	red	460	[405 885 405 675]	[1035 1515  405  675]
60.712	0.2	2292164	2292403	BlankScreen	ANTI	9	1	True	red	460	[405 885 405 675]	[1035 1515  405  675]
60.951	1.0	2292403	2293444	ELCue	ANTI	9	1	True	red	460	[405 885 405 675]	[1035 1515  405  675]
62.406	2.0	2293858	2296489	ShowFixation	ANTI	10	1	True	red	600	[ 90 570 405 675]	[1350 1830  405  675]
65.037	0.2	2296489	2296724	BlankScreen	ANTI	10	1	True	red	600	[ 90 570 405 675]	[1350 1830  405  675]
65.272	1.0	2296724	2297765	ELCue	ANTI	10	1	True	red	600	[ 90 570 405 675]	[1350 1830  405  675]
66.732	2.0	2298184	2300810	ShowFixation	ANTI	11	1	True	red	180	[1035 1515  405  675]	[405 885 405 675]
69.358	0.2	2300810	2301045	BlankScreen	ANTI	11	1	True	red	180	[1035 1515  405  675]	[405 885 405 675]
69.593	1.0	2301045	2302083	ELCue	ANTI	11	1	True	red	180	[1035 1515  405  675]	[405 885 405 675]
71.038	6.0	2302490	2309097	ShowFixation	ANTI	12	1	True	red	40	[1350 1830  405  675]	[ 90 570 405 675]
77.645	0.2	2309097	2309336	BlankScreen	ANTI	12	1	True	red	40	[1350 1830  405  675]	[ 90 570 405 675]
77.884	1.0	2309336	2310375	ELCue	ANTI	12	1	True	red	40	[1350 1830  405  675]	[ 90 570 405 675]
79.33	6.0	2310782	2317422	ShowFixation	VGS	13	1	True	lime	600	[1350 1830  405  675]	[ 90 570 405 675]
85.97	0.2	2317422	2317661	BlankScreen	VGS	13	1	True	lime	600	[1350 1830  405  675]	[ 90 570 405 675]
86.209	1.0	2317661	2318702	ELCue	VGS	13	1	True	lime	600	[1350 1830  405  675]	[ 90 570 405 675]
87.67	2.0	2319122	2321730	ShowFixation	ANTI	14	1	True	red	460	[405 885 405 675]	[1035 1515  405  675]
90.278	0.2	2321730	2321949	BlankScreen	ANTI	14	1	True	red	460	[405 885 405 675]	[1035 1515  405  675]
90.497	1.0	2321949	2322973	ELCue	ANTI	14	1	True	red	460	[405 885 405 675]	[1035 1515  405  675]
91.944	2.0	2323396	2326018	ShowFixation	VGS	15	1	True	lime	460	[1035 1515  405  675]	[405 885 405 675]
94.567	0.2	2326019	2326253	BlankScreen	VGS	15	1	True	lime	460	[1035 1515  405  675]	[405 885 405 675]
94.802	1.0	2326254	2327294	ELCue	VGS	15	1	True	lime	460	[1035 1515  405  675]	[405 885 405 675]
96.26	2.0	2327712	2330322	ShowFixation	VGS	16	1	True	lime	180	[405 885 405 675]	[1035 1515  405  675]
98.871	0.2	2330323	2330541	BlankScreen	VGS	16	1	True	lime	180	[405 885 405 675]	[1035 1515  405  675]
99.09	1.0	2330542	2331565	ELCue	VGS	16	1	True	lime	180	[405 885 405 675]	[1035 1515  405  675]
107.798	6.0	2339250	2345284	ShowFixation	VGS	17	2	False	lime	180	[405 885 405 675]	[1035 1515  405  675]
113.832	0.2	2345284	2345523	BlankScreen	VGS	17	2	False	lime	180	[405 885 405 675]	[1035 1515  405  675]
114.071	1.0	2345523	2346523	ELCue	VGS	17	2	False	lime	180	[405 885 405 675]	[1035 1515  405  675]
115.488	2.0	2346940	2348975	ShowFixation	VGS	18	2	False	lime	600	[1350 1830  405  675]	[ 90 570 405 675]
117.523	0.2	2348975	2349210	BlankScreen	VGS	18	2	False	lime	600	[1350 1830  405  675]	[ 90 570 405 675]
117.758	1.0	2349210	2350210	ELCue	VGS	18	2	False	lime	600	[1350 1830  405  675]	[ 90 570 405 675]
119.2	2.0	2350652	2352678	ShowFixation	VGS	19	2	False	lime	460	[1035 1515  405  675]	[405 885 405 675]
121.226	0.2	2352678	2352914	BlankScreen	VGS	19	2	False	lime	460	[1035 1515  405  675]	[405 885 405 675]
121.462	1.0	2352914	2353914	ELCue	VGS	19	2	False	lime	460	[1035 1515  405  675]	[405 885 405 675]
122.884	2.0	2354336	2356365	ShowFixation	ANTI	20	2	False	red	180	[1035 1515  405  675]	[405 885 405 675]
124.913	0.2	2356365	2356601	BlankScreen	ANTI	20	2	False	red	180	[1035 1515  405  675]	[405 885 405 675]
125.149	1.0	2356601	2357601	ELCue	ANTI	20	2	False	red	180	[1035 1515  405  675]	[405 885 405 675]
126.554	6.0	2358006	2364036	ShowFixation	ANTI	21	2	False	red	600	[ 90 570 405 675]	[1350 1830  405  675]
132.584	0.2	2364036	2364275	BlankScreen	ANTI	21	2	False	red	600	[ 90 570 405 675]	[1350 1830  405  675]
132.823	1.0	2364275	2365275	ELCue	ANTI	21	2	False	red	600	[ 90 570 405 675]	[1350 1830  405  675]
134.244	2.0	2365696	2367727	ShowFixation	VGS	22	2	False	lime	180	[405 885 405 675]	[1035 1515  405  675]
136.275	0.2	2367727	2367962	BlankScreen	VGS	22	2	False	lime	180	[405 885 405 675]	[1035 1515  405  675]
136.51	1.0	2367962	2368962	ELCue	VGS	22	2	False	lime	180	[405 885 405 675]	[1035 1515  405  675]
137.932	2.0	2369384	2371414	ShowFixation	VGS	23	2	False	lime	460	[1035 1515  405  675]	[405 885 405 675]
139.962	0.2	2371414	2371649	BlankScreen	VGS	23	2	False	lime	460	[1035 1515  405  675]	[405 885 405 675]
140.197	1.0	2371649	2372649	ELCue	VGS	23	2	False	lime	460	[1035 1515  405  675]	[405 885 405 675]
141.622	2.0	2373074	2375101	ShowFixation	ANTI	24	2	False	red	460	[405 885 405 675]	[1035 1515  405  675]
143.649	0.2	2375101	2375336	BlankScreen	ANTI	24	2	False	red	460	[405 885 405 675]	[1035 1515  405  675]
143.884	1.0	2375336	2376336	ELCue	ANTI	24	2	False	red	460	[405 885 405 675]	[1035 1515  405  675]
145.299	2.0	2376751	2378788	ShowFixation	VGS	25	2	False	lime	180	[405 885 405 675]	[1035 1515  405  675]
147.336	0.2	2378788	2379023	BlankScreen	VGS	25	2	False	lime	180	[405 885 405 675]	[1035 1515  405  675]
147.571	1.0	2379023	2380023	ELCue	VGS	25	2	False	lime	180	[405 885 405 675]	[1035 1515  405  675]
148.989	2.0	2380441	2382474	ShowFixation	VGS	26	2	False	lime	600	[1350 1830  405  675]	[ 90 570 405 675]
151.022	0.2	2382474	2382710	BlankScreen	VGS	26	2	False	lime	600	[1350 1830  405  675]	[ 90 570 405 675]
151.258	1.0	2382710	2383710	ELCue	VGS	26	2	False	lime	600	[1350 1830  405  675]	[ 90 570 405 675]
152.679	2.0	2384131	2386161	ShowFixation	ANTI	27	2	False	red	180	[1035 1515  405  675]	[405 885 405 675]
154.709	0.2	2386161	2386397	BlankScreen	ANTI	27	2	False	red	180	[1035 1515  405  675]	[405 885 405 675]
154.945	1.0	2386397	2387397	ELCue	ANTI	27	2	False	red	180	[1035 1515  405  675]	[405 885 405 675]
156.367	6.0	2387819	2393848	ShowFixation	ANTI	28	2	False	red	40	[1350 1830  405  675]	[ 90 570 405 675]
162.396	0.2	2393848	2394088	BlankScreen	ANTI	28	2	False	red	40	[1350 1830  405  675]	[ 90 570 405 675]
162.636	1.0	2394088	2395088	ELCue	ANTI	28	2	False	red	40	[1350 1830  405  675]	[ 90 570 405 675]
164.054	6.0	2395506	2401539	ShowFixation	VGS	29	2	False	lime	460	[1035 1515  405  675]	[405 885 405 675]
170.087	0.2	2401539	2401779	BlankScreen	VGS	29	2	False	lime	460	[1035 1515  405  675]	[405 885 405 675]
170.327	1.0	2401779	2402779	ELCue	VGS	29	2	False	lime	460	[1035 1515  405  675]	[405 885 405 675]
171.75	2.0	2403202	2405230	ShowFixation	ANTI	30	2	False	red	600	[ 90 570 405 675]	[1350 1830  405  675]
173.778	0.2	2405230	2405466	BlankScreen	ANTI	30	2	False	red	600	[ 90 570 405 675]	[1350 1830  405  675]
174.014	1.0	2405466	2406466	ELCue	ANTI	30	2	False	red	600	[ 90 570 405 675]	[1350 1830  405  675]
175.428	6.0	2406880	2412917	ShowFixation	ANTI	31	2	False	red	180	[1035 1515  405  675]	[405 885 405 675]
181.465	0.2	2412917	2413157	BlankScreen	ANTI	31	2	False	red	180	[1035 1515  405  675]	[405 885 405 675]
181.705	1.0	2413157	2414157	ELCue	ANTI	31	2	False	red	180	[1035 1515  405  675]	[405 885 405 675]
183.127	2.0	2414579	2416608	ShowFixation	ANTI	32	2	False	red	600	[ 90 570 405 675]	[1350 1830  405  675]
185.156	0.2	2416608	2416844	BlankScreen	ANTI	32	2	False	red	600	[ 90 570 405 675]	[1350 1830  405  675]
185.392	1.0	2416844	2417844	ELCue	ANTI	32	2	False	red	600	[ 90 570 405 675]	[1350 1830  405  675]
186.809	2.0	2418261	2420295	ShowFixation	ANTI	33	2	False	red	460	[405 885 405 675]	[1035 1515  405  675]
188.843	0.2	2420295	2420530	BlankScreen	ANTI	33	2	False	red	460	[405 885 405 675]	[1035 1515  405  675]
189.078	1.0	2420530	2421530	ELCue	ANTI	33	2	False	red	460	[405 885 405 675]	[1035 1515  405  675]
190.499	6.0	2421951	2427982	ShowFixation	VGS	34	2	False	lime	40	[ 90 570 405 675]	[1350 1830  405  675]
196.53	0.2	2427982	2428221	BlankScreen	VGS	34	2	False	lime	40	[ 90 570 405 675]	[1350 1830  405  675]
196.769	1.0	2428221	2429221	ELCue	VGS	34	2	False	lime	40	[ 90 570 405 675]	[1350 1830  405  675]
198.186	2.0	2429638	2431673	ShowFixation	VGS	35	2	False	lime	40	[ 90 570 405 675]	[1350 1830  405  675]
200.221	0.2	2431673	2431908	BlankScreen	VGS	35	2	False	lime	40	[ 90 570 405 675]	[1350 1830  405  675]
200.456	1.0	2431908	2432908	ELCue	VGS	35	2	False	lime	40	[ 90 570 405 675]	[1350 1830  405  675]
201.877	6.0	2433329	2439360	ShowFixation	VGS	36	2	False	lime	600	[1350 1830  405  675]	[ 90 570 405 675]
207.908	0.2	2439360	2439599	BlankScreen	VGS	36	2	False	lime	600	[1350 1830  405  675]	[ 90 570 405 675]
208.147	1.0	2439599	2440599	ELCue	VGS	36	2	False	lime	600	[1350 1830  405  675]	[ 90 570 405 675]
209.573	6.0	2441025	2447051	ShowFixation	VGS	37	2	False	lime	600	[1350 1830  405  675]	[ 90 570 405 675]
215.599	0.2	2447051	2447290	BlankScreen	VGS	37	2	False	lime	600	[1350 1830  405  675]	[ 90 570 405 675]
215.838	1.0	2447290	2448290	ELCue	VGS	37	2	False	lime	600	[1350 1830  405  675]	[ 90 570 405 675]
217.261	6.0	2448713	2454742	ShowFixation	VGS	38	2	False	lime	460	[1035 1515  405  675]	[405 885 405 675]
223.29	0.2	2454742	2454981	BlankScreen	VGS	38	2	False	lime	460	[1035 1515  405  675]	[405 885 405 675]
223.529	1.0	2454981	2455981	ELCue	VGS	38	2	False	lime	460	[1035 1515  405  675]	[405 885 405 675]
224.951	6.0	2456403	2462433	ShowFixation	VGS	39	2	False	lime	40	[ 90 570 405 675]	[1350 1830  405  675]
230.981	0.2	2462433	2462672	BlankScreen	VGS	39	2	False	lime	40	[ 90 570 405 675]	[1350 1830  405  675]
231.22	1.0	2462672	2463672	ELCue	VGS	39	2	False	lime	40	[ 90 570 405 675]	[1350 1830  405  675]
232.639	2.0	2464091	2466124	ShowFixation	ANTI	40	2	False	red	40	[1350 1830  405  675]	[ 90 570 405 675]
234.672	0.2	2466124	2466359	BlankScreen	ANTI	40	2	False	red	40	[1350 1830  405  675]	[ 90 570 405 675]
234.907	1.0	2466359	2467359	ELCue	ANTI	40	2	False	red	40	[1350 1830  405  675]	[ 90 570 405 675]
236.33	6.0	2467782	2473811	ShowFixation	ANTI	41	2	False	red	460	[405 885 405 675]	[1035 1515  405  675]
242.359	0.2	2473811	2474050	BlankScreen	ANTI	41	2	False	red	460	[405 885 405 675]	[1035 1515  405  675]
242.598	1.0	2474050	2475050	ELCue	ANTI	41	2	False	red	460	[405 885 405 675]	[1035 1515  405  675]
244.025	6.0	2475477	2481502	ShowFixation	ANTI	42	2	False	red	40	[1350 1830  405  675]	[ 90 570 405 675]
250.05	0.2	2481502	2481741	BlankScreen	ANTI	42	2	False	red	40	[1350 1830  405  675]	[ 90 570 405 675]
250.289	1.0	2481741	2482741	ELCue	ANTI	42	2	False	red	40	[1350 1830  405  675]	[ 90 570 405 675]
251.696	2.0	2483148	2485176	ShowFixation	ANTI	43	2	False	red	40	[1350 1830  405  675]	[ 90 570 405 675]
253.724	0.2	2485176	2485411	BlankScreen	ANTI	43	2	False	red	40	[1350 1830  405  675]	[ 90 570 405 675]
253.959	1.0	2485411	2486411	ELCue	ANTI	43	2	False	red	40	[1350 1830  405  675]	[ 90 570 405 675]
255.384	6.0	2486836	2492864	ShowFixation	ANTI	44	2	False	red	180	[1035 1515  405  675]	[405 885 405 675]
261.412	0.2	2492864	2493103	BlankScreen	ANTI	44	2	False	red	180	[1035 1515  405  675]	[405 885 405 675]
261.651	1.0	2493103	2494103	ELCue	ANTI	44	2	False	red	180	[1035 1515  405  675]	[405 885 405 675]
263.069	6.0	2494521	2500555	ShowFixation	VGS	45	2	False	lime	180	[405 885 405 675]	[1035 1515  405  675]
269.103	0.2	2500555	2500794	BlankScreen	VGS	45	2	False	lime	180	[405 885 405 675]	[1035 1515  405  675]
269.342	1.0	2500794	2501794	ELCue	VGS	45	2	False	lime	180	[405 885 405 675]	[1035 1515  405  675]
270.764	2.0	2502216	2504246	ShowFixation	VGS	46	2	False	lime	40	[ 90 570 405 675]	[1350 1830  405  675]
272.794	0.2	2504246	2504481	BlankScreen	VGS	46	2	False	lime	40	[ 90 570 405 675]	[1350 1830  405  675]
273.029	1.0	2504481	2505481	ELCue	VGS	46	2	False	lime	40	[ 90 570 405 675]	[1350 1830  405  675]
274.45	6.0	2505902	2511933	ShowFixation	ANTI	47	2	False	red	460	[405 885 405 675]	[1035 1515  405  675]
280.481	0.2	2511933	2512172	BlankScreen	ANTI	47	2	False	red	460	[405 885 405 675]	[1035 1515  405  675]
280.72	1.0	2512172	2513172	ELCue	ANTI	47	2	False	red	460	[405 885 405 675]	[1035 1515  405  675]
282.142	6.0	2513594	2519623	ShowFixation	ANTI	48	2	False	red	600	[ 90 570 405 675]	[1350 1830  405  675]
288.171	0.2	2519623	2519863	BlankScreen	ANTI	48	2	False	red	600	[ 90 570 405 675]	[1350 1830  405  675]
288.411	1.0	2519863	2520863	ELCue	ANTI	48	2	False	red	600	[ 90 570 405 675]	[1350 1830  405  675]
361.128	6.0	2592580	2598618	ShowFixation	VGS	49	3	False	lime	600	[1350 1830  405  675]	[ 90 570 405 675]
367.166	0.2	2598618	2598857	BlankScreen	VGS	49	3	False	lime	600	[1350 1830  405  675]	[ 90 570 405 675]
367.405	1.0	2598857	2599857	ELCue	VGS	49	3	False	lime	600	[1350 1830  405  675]	[ 90 570 405 675]
368.828	2.0	2600280	2602309	ShowFixation	ANTI	50	3	False	red	600	[ 90 570 405 675]	[1350 1830  405  675]
370.857	0.2	2602309	2602544	BlankScreen	ANTI	50	3	False	red	600	[ 90 570 405 675]	[1350 1830  405  675]
371.092	1.0	2602544	2603544	ELCue	ANTI	50	3	False	red	600	[ 90 570 405 675]	[1350 1830  405  675]
372.517	6.0	2603969	2609996	ShowFixation	ANTI	51	3	False	red	460	[405 885 405 675]	[1035 1515  405  675]
378.544	0.2	2609996	2610235	BlankScreen	ANTI	51	3	False	red	460	[405 885 405 675]	[1035 1515  405  675]
378.783	1.0	2610235	2611235	ELCue	ANTI	51	3	False	red	460	[405 885 405 675]	[1035 1515  405  675]
380.208	2.0	2611660	2613688	ShowFixation	VGS	52	3	False	lime	600	[1350 1830  405  675]	[ 90 570 405 675]
382.236	0.2	2613688	2613922	BlankScreen	VGS	52	3	False	lime	600	[1350 1830  405  675]	[ 90 570 405 675]
382.47	1.0	2613922	2614922	ELCue	VGS	52	3	False	lime	600	[1350 1830  405  675]	[ 90 570 405 675]
383.894	6.0	2615346	2621375	ShowFixation	VGS	53	3	False	lime	40	[ 90 570 405 675]	[1350 1830  405  675]
389.923	0.2	2621375	2621613	BlankScreen	VGS	53	3	False	lime	40	[ 90 570 405 675]	[1350 1830  405  675]
390.161	1.0	2621613	2622613	ELCue	VGS	53	3	False	lime	40	[ 90 570 405 675]	[1350 1830  405  675]
391.584	2.0	2623036	2625066	ShowFixation	VGS	54	3	False	lime	460	[1035 1515  405  675]	[405 885 405 675]
393.614	0.2	2625066	2625301	BlankScreen	VGS	54	3	False	lime	460	[1035 1515  405  675]	[405 885 405 675]
393.849	1.0	2625301	2626301	ELCue	VGS	54	3	False	lime	460	[1035 1515  405  675]	[405 885 405 675]
395.27	2.0	2626722	2628753	ShowFixation	VGS	55	3	False	lime	460	[1035 1515  405  675]	[405 885 405 675]
397.301	0.2	2628753	2628988	BlankScreen	VGS	55	3	False	lime	460	[1035 1515  405  675]	[405 885 405 675]
397.536	1.0	2628988	2629988	ELCue	VGS	55	3	False	lime	460	[1035 1515  405  675]	[405 885 405 675]
398.954	2.0	2630406	2632440	ShowFixation	VGS	56	3	False	lime	180	[405 885 405 675]	[1035 1515  405  675]
400.988	0.2	2632440	2632675	BlankScreen	VGS	56	3	False	lime	180	[405 885 405 675]	[1035 1515  405  675]
401.223	1.0	2632675	2633675	ELCue	VGS	56	3	False	lime	180	[405 885 405 675]	[1035 1515  405  675]
402.641	6.0	2634093	2640127	ShowFixation	ANTI	57	3	False	red	40	[1350 1830  405  675]	[ 90 570 405 675]
408.675	0.2	2640127	2640366	BlankScreen	ANTI	57	3	False	red	40	[1350 1830  405  675]	[ 90 570 405 675]
408.914	1.0	2640366	2641366	ELCue	ANTI	57	3	False	red	40	[1350 1830  405  675]	[ 90 570 405 675]
410.336	6.0	2641788	2647818	ShowFixation	VGS	58	3	False	lime	460	[1035 1515  405  675]	[405 885 405 675]
416.366	0.2	2647818	2648057	BlankScreen	VGS	58	3	False	lime	460	[1035 1515  405  675]	[405 885 405 675]
416.605	1.0	2648057	2649057	ELCue	VGS	58	3	False	lime	460	[1035 1515  405  675]	[405 885 405 675]
418.026	2.0	2649478	2651508	ShowFixation	ANTI	59	3	False	red	40	[1350 1830  405  675]	[ 90 570 405 675]
420.056	0.2	2651508	2651744	BlankScreen	ANTI	59	3	False	red	40	[1350 1830  405  675]	[ 90 570 405 675]
420.292	1.0	2651744	2652744	ELCue	ANTI	59	3	False	red	40	[1350 1830  405  675]	[ 90 570 405 675]
421.712	2.0	2653164	2655195	ShowFixation	VGS	60	3	False	lime	180	[405 885 405 675]	[1035 1515  405  675]
423.743	0.2	2655195	2655431	BlankScreen	VGS	60	3	False	lime	180	[405 885 405 675]	[1035 1515  405  675]
423.979	1.0	2655431	2656431	ELCue	VGS	60	3	False	lime	180	[405 885 405 675]	[1035 1515  405  675]
425.398	6.0	2656850	2662882	ShowFixation	VGS	61	3	False	lime	180	[405 885 405 675]	[1035 1515  405  675]
431.43	0.2	2662882	2663122	BlankScreen	VGS	61	3	False	lime	180	[405 885 405 675]	[1035 1515  405  675]
431.67	1.0	2663122	2664122	ELCue	VGS	61	3	False	lime	180	[405 885 405 675]	[1035 1515  405  675]
433.09	2.0	2664542	2666573	ShowFixation	ANTI	62	3	False	red	460	[405 885 405 675]	[1035 1515  405  675]
435.121	0.2	2666573	2666809	BlankScreen	ANTI	62	3	False	red	460	[405 885 405 675]	[1035 1515  405  675]
435.357	1.0	2666809	2667809	ELCue	ANTI	62	3	False	red	460	[405 885 405 675]	[1035 1515  405  675]
436.778	2.0	2668230	2670260	ShowFixation	ANTI	63	3	False	red	460	[405 885 405 675]	[1035 1515  405  675]
438.808	0.2	2670260	2670496	BlankScreen	ANTI	63	3	False	red	460	[405 885 405 675]	[1035 1515  405  675]
439.044	1.0	2670496	2671496	ELCue	ANTI	63	3	False	red	460	[405 885 405 675]	[1035 1515  405  675]
440.466	6.0	2671918	2677947	ShowFixation	VGS	64	3	False	lime	600	[1350 1830  405  675]	[ 90 570 405 675]
446.495	0.2	2677947	2678187	BlankScreen	VGS	64	3	False	lime	600	[1350 1830  405  675]	[ 90 570 405 675]
446.735	1.0	2678187	2679187	ELCue	VGS	64	3	False	lime	600	[1350 1830  405  675]	[ 90 570 405 675]
448.157	2.0	2679609	2681638	ShowFixation	VGS	65	3	False	lime	40	[ 90 570 405 675]	[1350 1830  405  675]
450.186	0.2	2681638	2681874	BlankScreen	VGS	65	3	False	lime	40	[ 90 570 405 675]	[1350 1830  405  675]
450.422	1.0	2681874	2682874	ELCue	VGS	65	3	False	lime	40	[ 90 570 405 675]	[1350 1830  405  675]
451.843	6.0	2683295	2689325	ShowFixation	ANTI	66	3	False	red	460	[405 885 405 675]	[1035 1515  405  675]
457.873	0.2	2689325	2689564	BlankScreen	ANTI	66	3	False	red	460	[405 885 405 675]	[1035 1515  405  675]
458.112	1.0	2689564	2690564	ELCue	ANTI	66	3	False	red	460	[405 885 405 675]	[1035 1515  405  675]
459.518	2.0	2690970	2692999	ShowFixation	VGS	67	3	False	lime	600	[1350 1830  405  675]	[ 90 570 405 675]
461.547	0.2	2692999	2693235	BlankScreen	VGS	67	3	False	lime	600	[1350 1830  405  675]	[ 90 570 405 675]
461.783	1.0	2693235	2694235	ELCue	VGS	67	3	False	lime	600	[1350 1830  405  675]	[ 90 570 405 675]
463.276	6.0	2694728	2700753	ShowFixation	VGS	68	3	False	lime	40	[ 90 570 405 675]	[1350 1830  405  675]
469.301	0.2	2700753	2700992	BlankScreen	VGS	68	3	False	lime	40	[ 90 570 405 675]	[1350 1830  405  675]
469.54	1.0	2700992	2701992	ELCue	VGS	68	3	False	lime	40	[ 90 570 405 675]	[1350 1830  405  675]
470.959	6.0	2702411	2708444	ShowFixation	VGS	69	3	False	lime	180	[405 885 405 675]	[1035 1515  405  675]
476.992	0.2	2708444	2708683	BlankScreen	VGS	69	3	False	lime	180	[405 885 405 675]	[1035 1515  405  675]
477.231	1.0	2708683	2709683	ELCue	VGS	69	3	False	lime	180	[405 885 405 675]	[1035 1515  405  675]
478.653	2.0	2710105	2712135	ShowFixation	ANTI	70	3	False	red	600	[ 90 570 405 675]	[1350 1830  405  675]
480.683	0.2	2712135	2712370	BlankScreen	ANTI	70	3	False	red	600	[ 90 570 405 675]	[1350 1830  405  675]
480.918	1.0	2712370	2713370	ELCue	ANTI	70	3	False	red	600	[ 90 570 405 675]	[1350 1830  405  675]
482.338	2.0	2713790	2715822	ShowFixation	ANTI	71	3	False	red	180	[1035 1515  405  675]	[405 885 405 675]
484.37	0.2	2715822	2716057	BlankScreen	ANTI	71	3	False	red	180	[1035 1515  405  675]	[405 885 405 675]
484.605	1.0	2716057	2717057	ELCue	ANTI	71	3	False	red	180	[1035 1515  405  675]	[405 885 405 675]
486.025	2.0	2717477	2719509	ShowFixation	ANTI	72	3	False	red	40	[1350 1830  405  675]	[ 90 570 405 675]
488.057	0.2	2719509	2719744	BlankScreen	ANTI	72	3	False	red	40	[1350 1830  405  675]	[ 90 570 405 675]
488.292	1.0	2719744	2720744	ELCue	ANTI	72	3	False	red	40	[1350 1830  405  675]	[ 90 570 405 675]
489.715	2.0	2721167	2723196	ShowFixation	VGS	73	3	False	lime	40	[ 90 570 405 675]	[1350 1830  405  675]
491.744	0.2	2723196	2723431	BlankScreen	VGS	73	3	False	lime	40	[ 90 570 405 675]	[1350 1830  405  675]
491.979	1.0	2723431	2724431	ELCue	VGS	73	3	False	lime	40	[ 90 570 405 675]	[1350 1830  405  675]
493.404	6.0	2724856	2730883	ShowFixation	ANTI	74	3	False	red	180	[1035 1515  405  675]	[405 885 405 675]
499.431	0.2	2730883	2731122	BlankScreen	ANTI	74	3	False	red	180	[1035 1515  405  675]	[405 885 405 675]
499.67	1.0	2731122	2732122	ELCue	ANTI	74	3	False	red	180	[1035 1515  405  675]	[405 885 405 675]
501.093	6.0	2732545	2738574	ShowFixation	ANTI	75	3	False	red	600	[ 90 570 405 675]	[1350 1830  405  675]
507.122	0.2	2738574	2738813	BlankScreen	ANTI	75	3	False	red	600	[ 90 570 405 675]	[1350 1830  405  675]
507.361	1.0	2738813	2739813	ELCue	ANTI	75	3	False	red	600	[ 90 570 405 675]	[1350 1830  405  675]
508.786	6.0	2740238	2746265	ShowFixation	VGS	76	3	False	lime	460	[1035 1515  405  675]	[405 885 405 675]
514.813	0.2	2746265	2746504	BlankScreen	VGS	76	3	False	lime	460	[1035 1515  405  675]	[405 885 405 675]
515.052	1.0	2746504	2747504	ELCue	VGS	76	3	False	lime	460	[1035 1515  405  675]	[405 885 405 675]
516.476	6.0	2747928	2753956	ShowFixation	ANTI	77	3	False	red	180	[1035 1515  405  675]	[405 885 405 675]
522.504	0.2	2753956	2754195	BlankScreen	ANTI	77	3	False	red	180	[1035 1515  405  675]	[405 885 405 675]
522.743	1.0	2754195	2755195	ELCue	ANTI	77	3	False	red	180	[1035 1515  405  675]	[405 885 405 675]
524.17	6.0	2755622	2761646	ShowFixation	ANTI	78	3	False	red	40	[1350 1830  405  675]	[ 90 570 405 675]
530.194	0.2	2761646	2761886	BlankScreen	ANTI	78	3	False	red	40	[1350 1830  405  675]	[ 90 570 405 675]
530.434	1.0	2761886	2762886	ELCue	ANTI	78	3	False	red	40	[1350 1830  405  675]	[ 90 570 405 675]
531.856	2.0	2763308	2765337	ShowFixation	ANTI	79	3	False	red	180	[1035 1515  405  675]	[405 885 405 675]
533.885	0.2	2765337	2765573	BlankScreen	ANTI	79	3	False	red	180	[1035 1515  405  675]	[405 885 405 675]
534.121	1.0	2765573	2766573	ELCue	ANTI	79	3	False	red	180	[1035 1515  405  675]	[405 885 405 675]
535.54	6.0	2766992	2773024	ShowFixation	ANTI	80	3	False	red	600	[ 90 570 405 675]	[1350 1830  405  675]
541.572	0.2	2773024	2773264	BlankScreen	ANTI	80	3	False	red	600	[ 90 570 405 675]	[1350 1830  405  675]
541.812	1.0	2773264	2774264	ELCue	ANTI	80	3	False	red	600	[ 90 570 405 675]	[1350 1830  405  675]
575.642	6.0	2807094	2813132	ShowFixation	ANTI	81	4	False	red	460	[405 885 405 675]	[1035 1515  405  675]
581.68	0.2	2813132	2813371	BlankScreen	ANTI	81	4	False	red	460	[405 885 405 675]	[1035 1515  405  675]
581.919	1.0	2813371	2814371	ELCue	ANTI	81	4	False	red	460	[405 885 405 675]	[1035 1515  405  675]
583.335	6.0	2814787	2820822	ShowFixation	ANTI	82	4	False	red	40	[1350 1830  405  675]	[ 90 570 405 675]
589.37	0.2	2820822	2821062	BlankScreen	ANTI	82	4	False	red	40	[1350 1830  405  675]	[ 90 570 405 675]
589.61	1.0	2821062	2822062	ELCue	ANTI	82	4	False	red	40	[1350 1830  405  675]	[ 90 570 405 675]
591.013	2.0	2822465	2824497	ShowFixation	VGS	83	4	False	lime	460	[1035 1515  405  675]	[405 885 405 675]
593.045	0.2	2824497	2824732	BlankScreen	VGS	83	4	False	lime	460	[1035 1515  405  675]	[405 885 405 675]
593.28	1.0	2824732	2825732	ELCue	VGS	83	4	False	lime	460	[1035 1515  405  675]	[405 885 405 675]
594.699	6.0	2826151	2832184	ShowFixation	VGS	84	4	False	lime	40	[ 90 570 405 675]	[1350 1830  405  675]
600.732	0.2	2832184	2832423	BlankScreen	VGS	84	4	False	lime	40	[ 90 570 405 675]	[1350 1830  405  675]
600.971	1.0	2832423	2833423	ELCue	VGS	84	4	False	lime	40	[ 90 570 405 675]	[1350 1830  405  675]
602.394	2.0	2833846	2835875	ShowFixation	ANTI	85	4	False	red	460	[405 885 405 675]	[1035 1515  405  675]
604.423	0.2	2835875	2836110	BlankScreen	ANTI	85	4	False	red	460	[405 885 405 675]	[1035 1515  405  675]
604.658	1.0	2836110	2837110	ELCue	ANTI	85	4	False	red	460	[405 885 405 675]	[1035 1515  405  675]
606.082	6.0	2837534	2843562	ShowFixation	VGS	86	4	False	lime	600	[1350 1830  405  675]	[ 90 570 405 675]
612.11	0.2	2843562	2843801	BlankScreen	VGS	86	4	False	lime	600	[1350 1830  405  675]	[ 90 570 405 675]
612.349	1.0	2843801	2844801	ELCue	VGS	86	4	False	lime	600	[1350 1830  405  675]	[ 90 570 405 675]
613.77	6.0	2845222	2851253	ShowFixation	ANTI	87	4	False	red	600	[ 90 570 405 675]	[1350 1830  405  675]
619.801	0.2	2851253	2851492	BlankScreen	ANTI	87	4	False	red	600	[ 90 570 405 675]	[1350 1830  405  675]
620.04	1.0	2851492	2852492	ELCue	ANTI	87	4	False	red	600	[ 90 570 405 675]	[1350 1830  405  675]
621.457	2.0	2852909	2854943	ShowFixation	ANTI	88	4	False	red	180	[1035 1515  405  675]	[405 885 405 675]
623.491	0.2	2854943	2855179	BlankScreen	ANTI	88	4	False	red	180	[1035 1515  405  675]	[405 885 405 675]
623.727	1.0	2855179	2856179	ELCue	ANTI	88	4	False	red	180	[1035 1515  405  675]	[405 885 405 675]
625.144	6.0	2856596	2862630	ShowFixation	ANTI	89	4	False	red	40	[1350 1830  405  675]	[ 90 570 405 675]
631.178	0.2	2862630	2862870	BlankScreen	ANTI	89	4	False	red	40	[1350 1830  405  675]	[ 90 570 405 675]
631.418	1.0	2862870	2863870	ELCue	ANTI	89	4	False	red	40	[1350 1830  405  675]	[ 90 570 405 675]
632.837	2.0	2864289	2866321	ShowFixation	VGS	90	4	False	lime	40	[ 90 570 405 675]	[1350 1830  405  675]
634.869	0.2	2866321	2866557	BlankScreen	VGS	90	4	False	lime	40	[ 90 570 405 675]	[1350 1830  405  675]
635.105	1.0	2866557	2867557	ELCue	VGS	90	4	False	lime	40	[ 90 570 405 675]	[1350 1830  405  675]
636.527	6.0	2867979	2874008	ShowFixation	ANTI	91	4	False	red	180	[1035 1515  405  675]	[405 885 405 675]
642.556	0.2	2874008	2874248	BlankScreen	ANTI	91	4	False	red	180	[1035 1515  405  675]	[405 885 405 675]
642.796	1.0	2874248	2875248	ELCue	ANTI	91	4	False	red	180	[1035 1515  405  675]	[405 885 405 675]
644.216	6.0	2875668	2881699	ShowFixation	VGS	92	4	False	lime	460	[1035 1515  405  675]	[405 885 405 675]
650.247	0.2	2881699	2881938	BlankScreen	VGS	92	4	False	lime	460	[1035 1515  405  675]	[405 885 405 675]
650.486	1.0	2881938	2882938	ELCue	VGS	92	4	False	lime	460	[1035 1515  405  675]	[405 885 405 675]
651.909	6.0	2883361	2889390	ShowFixation	ANTI	93	4	False	red	600	[ 90 570 405 675]	[1350 1830  405  675]
657.939	0.2	2889391	2889629	BlankScreen	ANTI	93	4	False	red	600	[ 90 570 405 675]	[1350 1830  405  675]
658.177	1.0	2889629	2890629	ELCue	ANTI	93	4	False	red	600	[ 90 570 405 675]	[1350 1830  405  675]
659.6	2.0	2891052	2893081	ShowFixation	ANTI	94	4	False	red	180	[1035 1515  405  675]	[405 885 405 675]
661.629	0.2	2893081	2893316	BlankScreen	ANTI	94	4	False	red	180	[1035 1515  405  675]	[405 885 405 675]
661.865	1.0	2893317	2894317	ELCue	ANTI	94	4	False	red	180	[1035 1515  405  675]	[405 885 405 675]
663.288	2.0	2894740	2896768	ShowFixation	VGS	95	4	False	lime	460	[1035 1515  405  675]	[405 885 405 675]
665.316	0.2	2896768	2897003	BlankScreen	VGS	95	4	False	lime	460	[1035 1515  405  675]	[405 885 405 675]
665.551	1.0	2897003	2898003	ELCue	VGS	95	4	False	lime	460	[1035 1515  405  675]	[405 885 405 675]
666.97	6.0	2898422	2904455	ShowFixation	ANTI	96	4	False	red	180	[1035 1515  405  675]	[405 885 405 675]
673.003	0.2	2904455	2904695	BlankScreen	ANTI	96	4	False	red	180	[1035 1515  405  675]	[405 885 405 675]
673.243	1.0	2904695	2905695	ELCue	ANTI	96	4	False	red	180	[1035 1515  405  675]	[405 885 405 675]
674.664	2.0	2906116	2908147	ShowFixation	VGS	97	4	False	lime	180	[405 885 405 675]	[1035 1515  405  675]
676.695	0.2	2908147	2908382	BlankScreen	VGS	97	4	False	lime	180	[405 885 405 675]	[1035 1515  405  675]
676.93	1.0	2908382	2909382	ELCue	VGS	97	4	False	lime	180	[405 885 405 675]	[1035 1515  405  675]
678.355	2.0	2909807	2911834	ShowFixation	ANTI	98	4	False	red	40	[1350 1830  405  675]	[ 90 570 405 675]
680.382	0.2	2911834	2912069	BlankScreen	ANTI	98	4	False	red	40	[1350 1830  405  675]	[ 90 570 405 675]
680.617	1.0	2912069	2913069	ELCue	ANTI	98	4	False	red	40	[1350 1830  405  675]	[ 90 570 405 675]
682.04	6.0	2913492	2919521	ShowFixation	VGS	99	4	False	lime	180	[405 885 405 675]	[1035 1515  405  675]
688.069	0.2	2919521	2919760	BlankScreen	VGS	99	4	False	lime	180	[405 885 405 675]	[1035 1515  405  675]
688.308	1.0	2919760	2920760	ELCue	VGS	99	4	False	lime	180	[405 885 405 675]	[1035 1515  405  675]
689.733	6.0	2921185	2927212	ShowFixation	VGS	100	4	False	lime	460	[1035 1515  405  675]	[405 885 405 675]
695.76	0.2	2927212	2927451	BlankScreen	VGS	100	4	False	lime	460	[1035 1515  405  675]	[405 885 405 675]
695.999	1.0	2927451	2928451	ELCue	VGS	100	4	False	lime	460	[1035 1515  405  675]	[405 885 405 675]
697.421	2.0	2928873	2930903	ShowFixation	VGS	101	4	False	lime	180	[405 885 405 675]	[1035 1515  405  675]
699.451	0.2	2930903	2931138	BlankScreen	VGS	101	4	False	lime	180	[405 885 405 675]	[1035 1515  405  675]
699.686	1.0	2931138	2932138	ELCue	VGS	101	4	False	lime	180	[405 885 405 675]	[1035 1515  405  675]
701.09	6.0	2932542	2938573	ShowFixation	VGS	102	4	False	lime	180	[405 885 405 675]	[1035 1515  405  675]
707.121	0.2	2938573	2938812	BlankScreen	VGS	102	4	False	lime	180	[405 885 405 675]	[1035 1515  405  675]
707.36	1.0	2938812	2939812	ELCue	VGS	102	4	False	lime	180	[405 885 405 675]	[1035 1515  405  675]
708.784	2.0	2940236	2942264	ShowFixation	ANTI	103	4	False	red	600	[ 90 570 405 675]	[1350 1830  405  675]
710.812	0.2	2942264	2942499	BlankScreen	ANTI	103	4	False	red	600	[ 90 570 405 675]	[1350 1830  405  675]
711.047	1.0	2942499	2943499	ELCue	ANTI	103	4	False	red	600	[ 90 570 405 675]	[1350 1830  405  675]
712.473	6.0	2943925	2949951	ShowFixation	VGS	104	4	False	lime	40	[ 90 570 405 675]	[1350 1830  405  675]
718.499	0.2	2949951	2950190	BlankScreen	VGS	104	4	False	lime	40	[ 90 570 405 675]	[1350 1830  405  675]
718.738	1.0	2950190	2951190	ELCue	VGS	104	4	False	lime	40	[ 90 570 405 675]	[1350 1830  405  675]
720.159	6.0	2951611	2957642	ShowFixation	VGS	105	4	False	lime	600	[1350 1830  405  675]	[ 90 570 405 675]
726.19	0.2	2957642	2957882	BlankScreen	VGS	105	4	False	lime	600	[1350 1830  405  675]	[ 90 570 405 675]
726.43	1.0	2957882	2958882	ELCue	VGS	105	4	False	lime	600	[1350 1830  405  675]	[ 90 570 405 675]
727.849	6.0	2959301	2965333	ShowFixation	ANTI	106	4	False	red	460	[405 885 405 675]	[1035 1515  405  675]
733.881	0.2	2965333	2965572	BlankScreen	ANTI	106	4	False	red	460	[405 885 405 675]	[1035 1515  405  675]
734.12	1.0	2965572	2966572	ELCue	ANTI	106	4	False	red	460	[405 885 405 675]	[1035 1515  405  675]
735.541	2.0	2966993	2969024	ShowFixation	ANTI	107	4	False	red	40	[1350 1830  405  675]	[ 90 570 405 675]
737.572	0.2	2969024	2969259	BlankScreen	ANTI	107	4	False	red	40	[1350 1830  405  675]	[ 90 570 405 675]
737.807	1.0	2969259	2970259	ELCue	ANTI	107	4	False	red	40	[1350 1830  405  675]	[ 90 570 405 675]
739.225	2.0	2970677	2972711	ShowFixation	VGS	108	4	False	lime	40	[ 90 570 405 675]	[1350 1830  405  675]
741.259	0.2	2972711	2972946	BlankScreen	VGS	108	4	False	lime	40	[ 90 570 405 675]	[1350 1830  405  675]
741.494	1.0	2972946	2973946	ELCue	VGS	108	4	False	lime	40	[ 90 570 405 675]	[1350 1830  405  675]
742.916	2.0	2974368	2976398	ShowFixation	VGS	109	4	False	lime	600	[1350 1830  405  675]	[ 90 570 405 675]
744.946	0.2	2976398	2976633	BlankScreen	VGS	109	4	False	lime	600	[1350 1830  405  675]	[ 90 570 405 675]
745.181	1.0	2976633	2977633	ELCue	VGS	109	4	False	lime	600	[1350 1830  405  675]	[ 90 570 405 675]
746.604	2.0	2978056	2980084	ShowFixation	VGS	110	4	False	lime	600	[1350 1830  405  675]	[ 90 570 405 675]
748.632	0.2	2980084	2980320	BlankScreen	VGS	110	4	False	lime	600	[1350 1830  405  675]	[ 90 570 405 675]
748.868	1.0	2980320	2981320	ELCue	VGS	110	4	False	lime	600	[1350 1830  405  675]	[ 90 570 405 675]
750.253	2.0	2981705	2983738	ShowFixation	ANTI	111	4	False	red	460	[405 885 405 675]	[1035 1515  405  675]
752.286	0.2	2983738	2983973	BlankScreen	ANTI	111	4	False	red	460	[405 885 405 675]	[1035 1515  405  675]
752.521	1.0	2983973	2984973	ELCue	ANTI	111	4	False	red	460	[405 885 405 675]	[1035 1515  405  675]
753.936	2.0	2985388	2987425	ShowFixation	ANTI	112	4	False	red	600	[ 90 570 405 675]	[1350 1830  405  675]
755.973	0.2	2987425	2987660	BlankScreen	ANTI	112	4	False	red	600	[ 90 570 405 675]	[1350 1830  405  675]
756.208	1.0	2987660	2988660	ELCue	ANTI	112	4	False	red	600	[ 90 570 405 675]	[1350 1830  405  675]
