onset	duration	startTime	stopTime	eventIdentifier	trial_type	trial_number	block_number	is_practice	fixation_color	cue_side	aoi_correct	aoi_incorrect
0.146	6.0	647446	653472	ShowFixation	ANTI	1	1	True	red	600	[ 90 570 405 675]	[1350 1830  405  675]
6.172	0.2	653472	653711	BlankScreen	ANTI	1	1	True	red	600	[ 90 570 405 675]	[1350 1830  405  675]
6.411	1.0	653711	654752	ELCue	ANTI	1	1	True	red	600	[ 90 570 405 675]	[1350 1830  405  675]
7.87	6.0	655170	661796	ShowFixation	VGS	2	1	True	lime	460	[1035 1515  405  675]	[405 885 405 675]
14.496	0.2	661796	662036	BlankScreen	VGS	2	1	True	lime	460	[1035 1515  405  675]	[405 885 405 675]
14.736	1.0	662036	663076	ELCue	VGS	2	1	True	lime	460	[1035 1515  405  675]	[405 885 405 675]
16.194	6.0	663494	670121	ShowFixation	ANTI	3	1	True	red	180	[1035 1515  405  675]	[405 885 405 675]
22.821	0.2	670121	670361	BlankScreen	ANTI	3	1	True	red	180	[1035 1515  405  675]	[405 885 405 675]
23.061	1.0	670361	671401	ELCue	ANTI	3	1	True	red	180	[1035 1515  405  675]	[405 885 405 675]
24.486	2.0	671786	674429	ShowFixation	VGS	4	1	True	lime	180	[405 885 405 675]	[1035 1515  405  675]
27.129	0.2	674429	674648	BlankScreen	VGS	4	1	True	lime	180	[405 885 405 675]	[1035 1515  405  675]
27.348	1.0	674648	675671	ELCue	VGS	4	1	True	lime	180	[405 885 405 675]	[1035 1515  405  675]
28.79	6.0	676090	682717	ShowFixation	VGS	5	1	True	lime	600	[1350 1830  405  675]	[ 90 570 405 675]
35.417	0.2	682717	682956	BlankScreen	VGS	5	1	True	lime	600	[1350 1830  405  675]	[ 90 570 405 675]
35.656	1.0	682956	683997	ELCue	VGS	5	1	True	lime	600	[1350 1830  405  675]	[ 90 570 405 675]
37.116	2.0	684416	687025	ShowFixation	VGS	6	1	True	lime	600	[1350 1830  405  675]	[ 90 570 405 675]
39.725	0.2	687025	687244	BlankScreen	VGS	6	1	True	lime	600	[1350 1830  405  675]	[ 90 570 405 675]
39.944	1.0	687244	688267	ELCue	VGS	6	1	True	lime	600	[1350 1830  405  675]	[ 90 570 405 675]
41.385	6.0	688685	695313	ShowFixation	ANTI	7	1	True	red	460	[405 885 405 675]	[1035 1515  405  675]
48.013	0.2	695313	695552	BlankScreen	ANTI	7	1	True	red	460	[405 885 405 675]	[1035 1515  405  675]
48.252	1.0	695552	696593	ELCue	ANTI	7	1	True	red	460	[405 885 405 675]	[1035 1515  405  675]
49.712	2.0	697012	699638	ShowFixation	VGS	8	1	True	lime	460	[1035 1515  405  675]	[405 885 405 675]
52.338	0.2	699638	699873	BlankScreen	VGS	8	1	True	lime	460	[1035 1515  405  675]	[405 885 405 675]
52.573	1.0	699873	700914	ELCue	VGS	8	1	True	lime	460	[1035 1515  405  675]	[405 885 405 675]
54.03	6.0	701330	707959	ShowFixation	VGS	9	1	True	lime	180	[405 885 405 675]	[1035 1515  405  675]
60.659	0.2	707959	708198	BlankScreen	VGS	9	1	True	lime	180	[405 885 405 675]	[1035 1515  405  675]
60.898	1.0	708198	709239	ELCue	VGS	9	1	True	lime	180	[405 885 405 675]	[1035 1515  405  675]
62.353	2.0	709653	712283	ShowFixation	ANTI	10	1	True	red	180	[1035 1515  405  675]	[405 885 405 675]
64.983	0.2	712283	712519	BlankScreen	ANTI	10	1	True	red	180	[1035 1515  405  675]	[405 885 405 675]
65.219	1.0	712519	713560	ELCue	ANTI	10	1	True	red	180	[1035 1515  405  675]	[405 885 405 675]
66.675	2.0	713975	716604	ShowFixation	VGS	11	1	True	lime	40	[ 90 570 405 675]	[1350 1830  405  675]
69.304	0.2	716604	716840	BlankScreen	VGS	11	1	True	lime	40	[ 90 570 405 675]	[1350 1830  405  675]
69.54	1.0	716840	717881	ELCue	VGS	11	1	True	lime	40	[ 90 570 405 675]	[1350 1830  405  675]
71.0	2.0	718300	720925	ShowFixation	ANTI	12	1	True	red	600	[ 90 570 405 675]	[1350 1830  405  675]
73.625	0.2	720925	721161	BlankScreen	ANTI	12	1	True	red	600	[ 90 570 405 675]	[1350 1830  405  675]
73.862	1.0	721162	722201	ELCue	ANTI	12	1	True	red	600	[ 90 570 405 675]	[1350 1830  405  675]
75.302	2.0	722602	725229	ShowFixation	ANTI	13	1	True	red	40	[1350 1830  405  675]	[ 90 570 405 675]
77.93	0.2	725230	725448	BlankScreen	ANTI	13	1	True	red	40	[1350 1830  405  675]	[ 90 570 405 675]
78.148	1.0	725448	726472	ELCue	ANTI	13	1	True	red	40	[1350 1830  405  675]	[ 90 570 405 675]
79.588	2.0	726888	729518	ShowFixation	ANTI	14	1	True	red	460	[405 885 405 675]	[1035 1515  405  675]
82.218	0.2	729518	729753	BlankScreen	ANTI	14	1	True	red	460	[405 885 405 675]	[1035 1515  405  675]
82.453	1.0	729753	730794	ELCue	ANTI	14	1	True	red	460	[405 885 405 675]	[1035 1515  405  675]
83.907	6.0	731207	737839	ShowFixation	VGS	15	1	True	lime	40	[ 90 570 405 675]	[1350 1830  405  675]
90.539	0.2	737839	738078	BlankScreen	VGS	15	1	True	lime	40	[ 90 570 405 675]	[1350 1830  405  675]
90.778	1.0	738078	739118	ELCue	VGS	15	1	True	lime	40	[ 90 570 405 675]	[1350 1830  405  675]
92.222	6.0	739522	746164	ShowFixation	ANTI	16	1	True	red	40	[1350 1830  405  675]	[ 90 570 405 675]
98.864	0.2	746164	746403	BlankScreen	ANTI	16	1	True	red	40	[1350 1830  405  675]	[ 90 570 405 675]
99.103	1.0	746403	747444	ELCue	ANTI	16	1	True	red	40	[1350 1830  405  675]	[ 90 570 405 675]
142.469	6.0	789769	795796	ShowFixation	VGS	17	2	False	lime	460	[1035 1515  405  675]	[405 885 405 675]
148.496	0.2	795796	796035	BlankScreen	VGS	17	2	False	lime	460	[1035 1515  405  675]	[405 885 405 675]
148.735	1.0	796035	797035	ELCue	VGS	17	2	False	lime	460	[1035 1515  405  675]	[405 885 405 675]
150.164	2.0	797464	799504	ShowFixation	VGS	18	2	False	lime	40	[ 90 570 405 675]	[1350 1830  405  675]
152.204	0.2	799504	799739	BlankScreen	VGS	18	2	False	lime	40	[ 90 570 405 675]	[1350 1830  405  675]
152.439	1.0	799739	800739	ELCue	VGS	18	2	False	lime	40	[ 90 570 405 675]	[1350 1830  405  675]
153.844	6.0	801144	807174	ShowFixation	VGS	19	2	False	lime	180	[405 885 405 675]	[1035 1515  405  675]
159.874	0.2	807174	807413	BlankScreen	VGS	19	2	False	lime	180	[405 885 405 675]	[1035 1515  405  675]
160.113	1.0	807413	808413	ELCue	VGS	19	2	False	lime	180	[405 885 405 675]	[1035 1515  405  675]
161.536	2.0	808836	810865	ShowFixation	VGS	20	2	False	lime	600	[1350 1830  405  675]	[ 90 570 405 675]
163.565	0.2	810865	811100	BlankScreen	VGS	20	2	False	lime	600	[1350 1830  405  675]	[ 90 570 405 675]
163.8	1.0	811100	812100	ELCue	VGS	20	2	False	lime	600	[1350 1830  405  675]	[ 90 570 405 675]
165.227	2.0	812527	814552	ShowFixation	VGS	21	2	False	lime	460	[1035 1515  405  675]	[405 885 405 675]
167.252	0.2	814552	814787	BlankScreen	VGS	21	2	False	lime	460	[1035 1515  405  675]	[405 885 405 675]
167.487	1.0	814787	815787	ELCue	VGS	21	2	False	lime	460	[1035 1515  405  675]	[405 885 405 675]
168.91	6.0	816210	822239	ShowFixation	ANTI	22	2	False	red	600	[ 90 570 405 675]	[1350 1830  405  675]
174.94	0.2	822240	822478	BlankScreen	ANTI	22	2	False	red	600	[ 90 570 405 675]	[1350 1830  405  675]
175.179	1.0	822479	823479	ELCue	ANTI	22	2	False	red	600	[ 90 570 405 675]	[1350 1830  405  675]
176.596	6.0	823896	829930	ShowFixation	ANTI	23	2	False	red	600	[ 90 570 405 675]	[1350 1830  405  675]
182.631	0.2	829931	830170	BlankScreen	ANTI	23	2	False	red	600	[ 90 570 405 675]	[1350 1830  405  675]
182.87	1.0	830170	831170	ELCue	ANTI	23	2	False	red	600	[ 90 570 405 675]	[1350 1830  405  675]
184.292	6.0	831592	837622	ShowFixation	VGS	24	2	False	lime	460	[1035 1515  405  675]	[405 885 405 675]
190.322	0.2	837622	837861	BlankScreen	VGS	24	2	False	lime	460	[1035 1515  405  675]	[405 885 405 675]
190.561	1.0	837861	838861	ELCue	VGS	24	2	False	lime	460	[1035 1515  405  675]	[405 885 405 675]
191.984	6.0	839284	845312	ShowFixation	ANTI	25	2	False	red	40	[1350 1830  405  675]	[ 90 570 405 675]
198.012	0.2	845312	845552	BlankScreen	ANTI	25	2	False	red	40	[1350 1830  405  675]	[ 90 570 405 675]
198.252	1.0	845552	846552	ELCue	ANTI	25	2	False	red	40	[1350 1830  405  675]	[ 90 570 405 675]
199.673	2.0	846973	849003	ShowFixation	ANTI	26	2	False	red	180	[1035 1515  405  675]	[405 885 405 675]
201.703	0.2	849003	849239	BlankScreen	ANTI	26	2	False	red	180	[1035 1515  405  675]	[405 885 405 675]
201.939	1.0	849239	850239	ELCue	ANTI	26	2	False	red	180	[1035 1515  405  675]	[405 885 405 675]
203.357	6.0	850657	856690	ShowFixation	VGS	27	2	False	lime	40	[ 90 570 405 675]	[1350 1830  405  675]
209.39	0.2	856690	856930	BlankScreen	VGS	27	2	False	lime	40	[ 90 570 405 675]	[1350 1830  405  675]
209.63	1.0	856930	857930	ELCue	VGS	27	2	False	lime	40	[ 90 570 405 675]	[1350 1830  405  675]
211.05	6.0	858350	864381	ShowFixation	ANTI	28	2	False	red	460	[405 885 405 675]	[1035 1515  405  675]
217.081	0.2	864381	864620	BlankScreen	ANTI	28	2	False	red	460	[405 885 405 675]	[1035 1515  405  675]
217.32	1.0	864620	865620	ELCue	ANTI	28	2	False	red	460	[405 885 405 675]	[1035 1515  405  675]
218.744	2.0	866044	868072	ShowFixation	ANTI	29	2	False	red	600	[ 90 570 405 675]	[1350 1830  405  675]
220.772	0.2	868072	868307	BlankScreen	ANTI	29	2	False	red	600	[ 90 570 405 675]	[1350 1830  405  675]
221.007	1.0	868307	869307	ELCue	ANTI	29	2	False	red	600	[ 90 570 405 675]	[1350 1830  405  675]
222.524	6.0	869824	875859	ShowFixation	ANTI	30	2	False	red	40	[1350 1830  405  675]	[ 90 570 405 675]
228.559	0.2	875859	876098	BlankScreen	ANTI	30	2	False	red	40	[1350 1830  405  675]	[ 90 570 405 675]
228.798	1.0	876098	877098	ELCue	ANTI	30	2	False	red	40	[1350 1830  405  675]	[ 90 570 405 675]
230.217	2.0	877517	879550	ShowFixation	VGS	31	2	False	lime	600	[1350 1830  405  675]	[ 90 570 405 675]
232.25	0.2	879550	879785	BlankScreen	VGS	31	2	False	lime	600	[1350 1830  405  675]	[ 90 570 405 675]
232.485	1.0	879785	880785	ELCue	VGS	31	2	False	lime	600	[1350 1830  405  675]	[ 90 570 405 675]
233.908	2.0	881208	883237	ShowFixation	VGS	32	2	False	lime	40	[ 90 570 405 675]	[1350 1830  405  675]
235.937	0.2	883237	883472	BlankScreen	VGS	32	2	False	lime	40	[ 90 570 405 675]	[1350 1830  405  675]
236.172	1.0	883472	884472	ELCue	VGS	32	2	False	lime	40	[ 90 570 405 675]	[1350 1830  405  675]
237.596	6.0	884896	890924	ShowFixation	VGS	33	2	False	lime	180	[405 885 405 675]	[1035 1515  405  675]
243.624	0.2	890924	891163	BlankScreen	VGS	33	2	False	lime	180	[405 885 405 675]	[1035 1515  405  675]
243.863	1.0	891163	892163	ELCue	VGS	33	2	False	lime	180	[405 885 405 675]	[1035 1515  405  675]
245.287	2.0	892587	894615	ShowFixation	ANTI	34	2	False	red	180	[1035 1515  405  675]	[405 885 405 675]
247.315	0.2	894615	894850	BlankScreen	ANTI	34	2	False	red	180	[1035 1515  405  675]	[405 885 405 675]
247.55	1.0	894850	895850	ELCue	ANTI	34	2	False	red	180	[1035 1515  405  675]	[405 885 405 675]
248.973	2.0	896273	898302	ShowFixation	ANTI	35	2	False	red	40	[1350 1830  405  675]	[ 90 570 405 675]
251.002	0.2	898302	898537	BlankScreen	ANTI	35	2	False	red	40	[1350 1830  405  675]	[ 90 570 405 675]
251.237	1.0	898537	899537	ELCue	ANTI	35	2	False	red	40	[1350 1830  405  675]	[ 90 570 405 675]
252.662	6.0	899962	905989	ShowFixation	VGS	36	2	False	lime	600	[1350 1830  405  675]	[ 90 570 405 675]
258.689	0.2	905989	906228	BlankScreen	VGS	36	2	False	lime	600	[1350 1830  405  675]	[ 90 570 405 675]
258.928	1.0	906228	907228	ELCue	VGS	36	2	False	lime	600	[1350 1830  405  675]	[ 90 570 405 675]
260.354	2.0	907654	909680	ShowFixation	VGS	37	2	False	lime	180	[405 885 405 675]	[1035 1515  405  675]
262.38	0.2	909680	909915	BlankScreen	VGS	37	2	False	lime	180	[405 885 405 675]	[1035 1515  405  675]
262.615	1.0	909915	910915	ELCue	VGS	37	2	False	lime	180	[405 885 405 675]	[1035 1515  405  675]
264.036	6.0	911336	917367	ShowFixation	ANTI	38	2	False	red	180	[1035 1515  405  675]	[405 885 405 675]
270.067	0.2	917367	917606	BlankScreen	ANTI	38	2	False	red	180	[1035 1515  405  675]	[405 885 405 675]
270.306	1.0	917606	918606	ELCue	ANTI	38	2	False	red	180	[1035 1515  405  675]	[405 885 405 675]
271.73	2.0	919030	921058	ShowFixation	ANTI	39	2	False	red	460	[405 885 405 675]	[1035 1515  405  675]
273.759	0.2	921059	921294	BlankScreen	ANTI	39	2	False	red	460	[405 885 405 675]	[1035 1515  405  675]
273.994	1.0	921294	922294	ELCue	ANTI	39	2	False	red	460	[405 885 405 675]	[1035 1515  405  675]
275.416	6.0	922716	928745	ShowFixation	ANTI	40	2	False	red	180	[1035 1515  405  675]	[405 885 405 675]
281.446	0.2	928746	928985	BlankScreen	ANTI	40	2	False	red	180	[1035 1515  405  675]	[405 885 405 675]
281.685	1.0	928985	929985	ELCue	ANTI	40	2	False	red	180	[1035 1515  405  675]	[405 885 405 675]
283.11	2.0	930410	932436	ShowFixation	ANTI	41	2	False	red	460	[405 885 405 675]	[1035 1515  405  675]
285.136	0.2	932436	932672	BlankScreen	ANTI	41	2	False	red	460	[405 885 405 675]	[1035 1515  405  675]
285.372	1.0	932672	933672	ELCue	ANTI	41	2	False	red	460	[405 885 405 675]	[1035 1515  405  675]
286.795	2.0	934095	936123	ShowFixation	ANTI	42	2	False	red	40	[1350 1830  405  675]	[ 90 570 405 675]
288.823	0.2	936123	936359	BlankScreen	ANTI	42	2	False	red	40	[1350 1830  405  675]	[ 90 570 405 675]
289.059	1.0	936359	937359	ELCue	ANTI	42	2	False	red	40	[1350 1830  405  675]	[ 90 570 405 675]
290.482	6.0	937782	943810	ShowFixation	ANTI	43	2	False	red	460	[405 885 405 675]	[1035 1515  405  675]
296.51	0.2	943810	944050	BlankScreen	ANTI	43	2	False	red	460	[405 885 405 675]	[1035 1515  405  675]
296.75	1.0	944050	945050	ELCue	ANTI	43	2	False	red	460	[405 885 405 675]	[1035 1515  405  675]
298.172	2.0	945472	947501	ShowFixation	VGS	44	2	False	lime	460	[1035 1515  405  675]	[405 885 405 675]
300.201	0.2	947501	947737	BlankScreen	VGS	44	2	False	lime	460	[1035 1515  405  675]	[405 885 405 675]
300.437	1.0	947737	948737	ELCue	VGS	44	2	False	lime	460	[1035 1515  405  675]	[405 885 405 675]
301.861	2.0	949161	951188	ShowFixation	ANTI	45	2	False	red	600	[ 90 570 405 675]	[1350 1830  405  675]
303.888	0.2	951188	951424	BlankScreen	ANTI	45	2	False	red	600	[ 90 570 405 675]	[1350 1830  405  675]
304.124	1.0	951424	952424	ELCue	ANTI	45	2	False	red	600	[ 90 570 405 675]	[1350 1830  405  675]
305.543	6.0	952843	958875	ShowFixation	VGS	46	2	False	lime	40	[ 90 570 405 675]	[1350 1830  405  675]
311.575	0.2	958875	959114	BlankScreen	VGS	46	2	False	lime	40	[ 90 570 405 675]	[1350 1830  405  675]
311.814	1.0	959114	960114	ELCue	VGS	46	2	False	lime	40	[ 90 570 405 675]	[1350 1830  405  675]
313.237	2.0	960537	962566	ShowFixation	VGS	47	2	False	lime	180	[405 885 405 675]	[1035 1515  405  675]
315.266	0.2	962566	962801	BlankScreen	VGS	47	2	False	lime	180	[405 885 405 675]	[1035 1515  405  675]
315.501	1.0	962801	963801	ELCue	VGS	47	2	False	lime	180	[405 885 405 675]	[1035 1515  405  675]
316.924	6.0	964224	970253	ShowFixation	VGS	48	2	False	lime	600	[1350 1830  405  675]	[ 90 570 405 675]
322.953	0.2	970253	970492	BlankScreen	VGS	48	2	False	lime	600	[1350 1830  405  675]	[ 90 570 405 675]
323.192	1.0	970492	971492	ELCue	VGS	48	2	False	lime	600	[1350 1830  405  675]	[ 90 570 405 675]
345.21	6.0	992510	998548	ShowFixation	VGS	49	3	False	lime	40	[ 90 570 405 675]	[1350 1830  405  675]
351.248	0.2	998548	998787	BlankScreen	VGS	49	3	False	lime	40	[ 90 570 405 675]	[1350 1830  405  675]
351.487	1.0	998787	999787	ELCue	VGS	49	3	False	lime	40	[ 90 570 405 675]	[1350 1830  405  675]
352.912	2.0	1000212	1002238	ShowFixation	VGS	50	3	False	lime	40	[ 90 570 405 675]	[1350 1830  405  675]
354.938	0.2	1002238	1002474	BlankScreen	VGS	50	3	False	lime	40	[ 90 570 405 675]	[1350 1830  405  675]
355.174	1.0	1002474	1003474	ELCue	VGS	50	3	False	lime	40	[ 90 570 405 675]	[1350 1830  405  675]
356.597	2.0	1003897	1005925	ShowFixation	ANTI	51	3	False	red	40	[1350 1830  405  675]	[ 90 570 405 675]
358.625	0.2	1005925	1006161	BlankScreen	ANTI	51	3	False	red	40	[1350 1830  405  675]	[ 90 570 405 675]
358.861	1.0	1006161	1007161	ELCue	ANTI	51	3	False	red	40	[1350 1830  405  675]	[ 90 570 405 675]
360.281	6.0	1007581	1013612	ShowFixation	VGS	52	3	False	lime	40	[ 90 570 405 675]	[1350 1830  405  675]
366.312	0.2	1013612	1013852	BlankScreen	VGS	52	3	False	lime	40	[ 90 570 405 675]	[1350 1830  405  675]
366.552	1.0	1013852	1014852	ELCue	VGS	52	3	False	lime	40	[ 90 570 405 675]	[1350 1830  405  675]
367.976	6.0	1015276	1021303	ShowFixation	ANTI	53	3	False	red	460	[405 885 405 675]	[1035 1515  405  675]
374.003	0.2	1021303	1021543	BlankScreen	ANTI	53	3	False	red	460	[405 885 405 675]	[1035 1515  405  675]
374.243	1.0	1021543	1022543	ELCue	ANTI	53	3	False	red	460	[405 885 405 675]	[1035 1515  405  675]
375.667	2.0	1022967	1024995	ShowFixation	VGS	54	3	False	lime	40	[ 90 570 405 675]	[1350 1830  405  675]
377.695	0.2	1024995	1025231	BlankScreen	VGS	54	3	False	lime	40	[ 90 570 405 675]	[1350 1830  405  675]
377.931	1.0	1025231	1026231	ELCue	VGS	54	3	False	lime	40	[ 90 570 405 675]	[1350 1830  405  675]
379.332	2.0	1026632	1028665	ShowFixation	VGS	55	3	False	lime	180	[405 885 405 675]	[1035 1515  405  675]
381.365	0.2	1028665	1028901	BlankScreen	VGS	55	3	False	lime	180	[405 885 405 675]	[1035 1515  405  675]
381.601	1.0	1028901	1029901	ELCue	VGS	55	3	False	lime	180	[405 885 405 675]	[1035 1515  405  675]
383.023	6.0	1030323	1036352	ShowFixation	ANTI	56	3	False	red	460	[405 885 405 675]	[1035 1515  405  675]
389.052	0.2	1036352	1036592	BlankScreen	ANTI	56	3	False	red	460	[405 885 405 675]	[1035 1515  405  675]
389.292	1.0	1036592	1037592	ELCue	ANTI	56	3	False	red	460	[405 885 405 675]	[1035 1515  405  675]
390.713	2.0	1038013	1040043	ShowFixation	ANTI	57	3	False	red	600	[ 90 570 405 675]	[1350 1830  405  675]
392.743	0.2	1040043	1040279	BlankScreen	ANTI	57	3	False	red	600	[ 90 570 405 675]	[1350 1830  405  675]
392.979	1.0	1040279	1041279	ELCue	ANTI	57	3	False	red	600	[ 90 570 405 675]	[1350 1830  405  675]
394.401	6.0	1041701	1047730	ShowFixation	ANTI	58	3	False	red	180	[1035 1515  405  675]	[405 885 405 675]
400.43	0.2	1047730	1047970	BlankScreen	ANTI	58	3	False	red	180	[1035 1515  405  675]	[405 885 405 675]
400.67	1.0	1047970	1048970	ELCue	ANTI	58	3	False	red	180	[1035 1515  405  675]	[405 885 405 675]
402.088	2.0	1049388	1051421	ShowFixation	ANTI	59	3	False	red	180	[1035 1515  405  675]	[405 885 405 675]
404.121	0.2	1051421	1051657	BlankScreen	ANTI	59	3	False	red	180	[1035 1515  405  675]	[405 885 405 675]
404.357	1.0	1051657	1052657	ELCue	ANTI	59	3	False	red	180	[1035 1515  405  675]	[405 885 405 675]
405.776	2.0	1053076	1055108	ShowFixation	ANTI	60	3	False	red	460	[405 885 405 675]	[1035 1515  405  675]
407.808	0.2	1055108	1055343	BlankScreen	ANTI	60	3	False	red	460	[405 885 405 675]	[1035 1515  405  675]
408.043	1.0	1055343	1056343	ELCue	ANTI	60	3	False	red	460	[405 885 405 675]	[1035 1515  405  675]
409.466	2.0	1056766	1058795	ShowFixation	VGS	61	3	False	lime	600	[1350 1830  405  675]	[ 90 570 405 675]
411.495	0.2	1058795	1059030	BlankScreen	VGS	61	3	False	lime	600	[1350 1830  405  675]	[ 90 570 405 675]
411.73	1.0	1059030	1060030	ELCue	VGS	61	3	False	lime	600	[1350 1830  405  675]	[ 90 570 405 675]
413.149	6.0	1060449	1066482	ShowFixation	ANTI	62	3	False	red	40	[1350 1830  405  675]	[ 90 570 405 675]
419.182	0.2	1066482	1066721	BlankScreen	ANTI	62	3	False	red	40	[1350 1830  405  675]	[ 90 570 405 675]
419.421	1.0	1066721	1067721	ELCue	ANTI	62	3	False	red	40	[1350 1830  405  675]	[ 90 570 405 675]
420.841	2.0	1068141	1070173	ShowFixation	VGS	63	3	False	lime	460	[1035 1515  405  675]	[405 885 405 675]
422.873	0.2	1070173	1070408	BlankScreen	VGS	63	3	False	lime	460	[1035 1515  405  675]	[405 885 405 675]
423.108	1.0	1070408	1071408	ELCue	VGS	63	3	False	lime	460	[1035 1515  405  675]	[405 885 405 675]
424.527	2.0	1071827	1073860	ShowFixation	ANTI	64	3	False	red	180	[1035 1515  405  675]	[405 885 405 675]
426.56	0.2	1073860	1074095	BlankScreen	ANTI	64	3	False	red	180	[1035 1515  405  675]	[405 885 405 675]
426.795	1.0	1074095	1075095	ELCue	ANTI	64	3	False	red	180	[1035 1515  405  675]	[405 885 405 675]
428.218	2.0	1075518	1077547	ShowFixation	ANTI	65	3	False	red	460	[405 885 405 675]	[1035 1515  405  675]
430.247	0.2	1077547	1077782	BlankScreen	ANTI	65	3	False	red	460	[405 885 405 675]	[1035 1515  405  675]
430.482	1.0	1077782	1078782	ELCue	ANTI	65	3	False	red	460	[405 885 405 675]	[1035 1515  405  675]
431.91	2.0	1079210	1081251	ShowFixation	VGS	66	3	False	lime	600	[1350 1830  405  675]	[ 90 570 405 675]
433.951	0.2	1081251	1081486	BlankScreen	VGS	66	3	False	lime	600	[1350 1830  405  675]	[ 90 570 405 675]
434.186	1.0	1081486	1082486	ELCue	VGS	66	3	False	lime	600	[1350 1830  405  675]	[ 90 570 405 675]
435.612	2.0	1082912	1084938	ShowFixation	ANTI	67	3	False	red	600	[ 90 570 405 675]	[1350 1830  405  675]
437.638	0.2	1084938	1085173	BlankScreen	ANTI	67	3	False	red	600	[ 90 570 405 675]	[1350 1830  405  675]
437.873	1.0	1085173	1086173	ELCue	ANTI	67	3	False	red	600	[ 90 570 405 675]	[1350 1830  405  675]
439.297	6.0	1086597	1092624	ShowFixation	VGS	68	3	False	lime	180	[405 885 405 675]	[1035 1515  405  675]
445.324	0.2	1092624	1092864	BlankScreen	VGS	68	3	False	lime	180	[405 885 405 675]	[1035 1515  405  675]
445.564	1.0	1092864	1093864	ELCue	VGS	68	3	False	lime	180	[405 885 405 675]	[1035 1515  405  675]
446.988	6.0	1094288	1100315	ShowFixation	VGS	69	3	False	lime	180	[405 885 405 675]	[1035 1515  405  675]
453.015	0.2	1100315	1100555	BlankScreen	VGS	69	3	False	lime	180	[405 885 405 675]	[1035 1515  405  675]
453.255	1.0	1100555	1101555	ELCue	VGS	69	3	False	lime	180	[405 885 405 675]	[1035 1515  405  675]
454.678	6.0	1101978	1108006	ShowFixation	VGS	70	3	False	lime	460	[1035 1515  405  675]	[405 885 405 675]
460.706	0.2	1108006	1108246	BlankScreen	VGS	70	3	False	lime	460	[1035 1515  405  675]	[405 885 405 675]
460.946	1.0	1108246	1109246	ELCue	VGS	70	3	False	lime	460	[1035 1515  405  675]	[405 885 405 675]
462.366	6.0	1109666	1115697	ShowFixation	ANTI	71	3	False	red	180	[1035 1515  405  675]	[405 885 405 675]
468.397	0.2	1115697	1115936	BlankScreen	ANTI	71	3	False	red	180	[1035 1515  405  675]	[405 885 405 675]
468.637	1.0	1115937	1116937	ELCue	ANTI	71	3	False	red	180	[1035 1515  405  675]	[405 885 405 675]
470.058	6.0	1117358	1123388	ShowFixation	ANTI	72	3	False	red	600	[ 90 570 405 675]	[1350 1830  405  675]
476.089	0.2	1123389	1123627	BlankScreen	ANTI	72	3	False	red	600	[ 90 570 405 675]	[1350 1830  405  675]
476.327	1.0	1123627	1124627	ELCue	ANTI	72	3	False	red	600	[ 90 570 405 675]	[1350 1830  405  675]
477.752	6.0	1125052	1131080	ShowFixation	ANTI	73	3	False	red	600	[ 90 570 405 675]	[1350 1830  405  675]
483.78	0.2	1131080	1131319	BlankScreen	ANTI	73	3	False	red	600	[ 90 570 405 675]	[1350 1830  405  675]
484.019	1.0	1131319	1132319	ELCue	ANTI	73	3	False	red	600	[ 90 570 405 675]	[1350 1830  405  675]
485.443	2.0	1132743	1134771	ShowFixation	ANTI	74	3	False	red	40	[1350 1830  405  675]	[ 90 570 405 675]
487.471	0.2	1134771	1135006	BlankScreen	ANTI	74	3	False	red	40	[1350 1830  405  675]	[ 90 570 405 675]
487.706	1.0	1135006	1136006	ELCue	ANTI	74	3	False	red	40	[1350 1830  405  675]	[ 90 570 405 675]
489.13	6.0	1136430	1142458	ShowFixation	VGS	75	3	False	lime	600	[1350 1830  405  675]	[ 90 570 405 675]
495.158	0.2	1142458	1142697	BlankScreen	VGS	75	3	False	lime	600	[1350 1830  405  675]	[ 90 570 405 675]
495.397	1.0	1142697	1143697	ELCue	VGS	75	3	False	lime	600	[1350 1830  405  675]	[ 90 570 405 675]
496.814	6.0	1144114	1150149	ShowFixation	VGS	76	3	False	lime	600	[1350 1830  405  675]	[ 90 570 405 675]
502.849	0.2	1150149	1150388	BlankScreen	VGS	76	3	False	lime	600	[1350 1830  405  675]	[ 90 570 405 675]
503.088	1.0	1150388	1151388	ELCue	VGS	76	3	False	lime	600	[1350 1830  405  675]	[ 90 570 405 675]
504.511	6.0	1151811	1157840	ShowFixation	ANTI	77	3	False	red	40	[1350 1830  405  675]	[ 90 570 405 675]
510.54	0.2	1157840	1158079	BlankScreen	ANTI	77	3	False	red	40	[1350 1830  405  675]	[ 90 570 405 675]
510.779	1.0	1158079	1159079	ELCue	ANTI	77	3	False	red	40	[1350 1830  405  675]	[ 90 570 405 675]
512.186	2.0	1159486	1161514	ShowFixation	VGS	78	3	False	lime	180	[405 885 405 675]	[1035 1515  405  675]
514.214	0.2	1161514	1161749	BlankScreen	VGS	78	3	False	lime	180	[405 885 405 675]	[1035 1515  405  675]
514.449	1.0	1161749	1162749	ELCue	VGS	78	3	False	lime	180	[405 885 405 675]	[1035 1515  405  675]
515.874	6.0	1163174	1169201	ShowFixation	VGS	79	3	False	lime	460	[1035 1515  405  675]	[405 885 405 675]
521.901	0.2	1169201	1169440	BlankScreen	VGS	79	3	False	lime	460	[1035 1515  405  675]	[405 885 405 675]
522.14	1.0	1169440	1170440	ELCue	VGS	79	3	False	lime	460	[1035 1515  405  675]	[405 885 405 675]
523.562	2.0	1170862	1172892	ShowFixation	VGS	80	3	False	lime	460	[1035 1515  405  675]	[405 885 405 675]
525.592	0.2	1172892	1173127	BlankScreen	VGS	80	3	False	lime	460	[1035 1515  405  675]	[405 885 405 675]
525.827	1.0	1173127	1174127	ELCue	VGS	80	3	False	lime	460	[1035 1515  405  675]	[405 885 405 675]
539.741	6.0	1187041	1193074	ShowFixation	ANTI	81	4	False	red	600	[ 90 570 405 675]	[1350 1830  405  675]
545.774	0.2	1193074	1193314	BlankScreen	ANTI	81	4	False	red	600	[ 90 570 405 675]	[1350 1830  405  675]
546.014	1.0	1193314	1194314	ELCue	ANTI	81	4	False	red	600	[ 90 570 405 675]	[1350 1830  405  675]
547.439	2.0	1194739	1196765	ShowFixation	VGS	82	4	False	lime	600	[1350 1830  405  675]	[ 90 570 405 675]
549.465	0.2	1196765	1197001	BlankScreen	VGS	82	4	False	lime	600	[1350 1830  405  675]	[ 90 570 405 675]
549.701	1.0	1197001	1198001	ELCue	VGS	82	4	False	lime	600	[1350 1830  405  675]	[ 90 570 405 675]
551.11	6.0	1198410	1204436	ShowFixation	ANTI	83	4	False	red	460	[405 885 405 675]	[1035 1515  405  675]
557.136	0.2	1204436	1204675	BlankScreen	ANTI	83	4	False	red	460	[405 885 405 675]	[1035 1515  405  675]
557.375	1.0	1204675	1205675	ELCue	ANTI	83	4	False	red	460	[405 885 405 675]	[1035 1515  405  675]
558.797	2.0	1206097	1208126	ShowFixation	ANTI	84	4	False	red	600	[ 90 570 405 675]	[1350 1830  405  675]
560.826	0.2	1208126	1208362	BlankScreen	ANTI	84	4	False	red	600	[ 90 570 405 675]	[1350 1830  405  675]
561.062	1.0	1208362	1209362	ELCue	ANTI	84	4	False	red	600	[ 90 570 405 675]	[1350 1830  405  675]
562.485	2.0	1209785	1211813	ShowFixation	ANTI	85	4	False	red	180	[1035 1515  405  675]	[405 885 405 675]
564.513	0.2	1211813	1212049	BlankScreen	ANTI	85	4	False	red	180	[1035 1515  405  675]	[405 885 405 675]
564.749	1.0	1212049	1213049	ELCue	ANTI	85	4	False	red	180	[1035 1515  405  675]	[405 885 405 675]
566.174	6.0	1213474	1219500	ShowFixation	ANTI	86	4	False	red	180	[1035 1515  405  675]	[405 885 405 675]
572.2	0.2	1219500	1219740	BlankScreen	ANTI	86	4	False	red	180	[1035 1515  405  675]	[405 885 405 675]
572.44	1.0	1219740	1220740	ELCue	ANTI	86	4	False	red	180	[1035 1515  405  675]	[405 885 405 675]
573.862	6.0	1221162	1227192	ShowFixation	VGS	87	4	False	lime	460	[1035 1515  405  675]	[405 885 405 675]
579.892	0.2	1227192	1227432	BlankScreen	VGS	87	4	False	lime	460	[1035 1515  405  675]	[405 885 405 675]
580.132	1.0	1227432	1228432	ELCue	VGS	87	4	False	lime	460	[1035 1515  405  675]	[405 885 405 675]
581.554	6.0	1228854	1234883	ShowFixation	VGS	88	4	False	lime	600	[1350 1830  405  675]	[ 90 570 405 675]
587.583	0.2	1234883	1235122	BlankScreen	VGS	88	4	False	lime	600	[1350 1830  405  675]	[ 90 570 405 675]
587.822	1.0	1235122	1236122	ELCue	VGS	88	4	False	lime	600	[1350 1830  405  675]	[ 90 570 405 675]
589.242	6.0	1236542	1242574	ShowFixation	VGS	89	4	False	lime	40	[ 90 570 405 675]	[1350 1830  405  675]
595.274	0.2	1242574	1242813	BlankScreen	VGS	89	4	False	lime	40	[ 90 570 405 675]	[1350 1830  405  675]
595.513	1.0	1242813	1243813	ELCue	VGS	89	4	False	lime	40	[ 90 570 405 675]	[1350 1830  405  675]
596.899	2.0	1244199	1246232	ShowFixation	VGS	90	4	False	lime	600	[1350 1830  405  675]	[ 90 570 405 675]
598.932	0.2	1246232	1246467	BlankScreen	VGS	90	4	False	lime	600	[1350 1830  405  675]	[ 90 570 405 675]
599.167	1.0	1246467	1247467	ELCue	VGS	90	4	False	lime	600	[1350 1830  405  675]	[ 90 570 405 675]
600.584	2.0	1247884	1249919	ShowFixation	ANTI	91	4	False	red	180	[1035 1515  405  675]	[405 885 405 675]
602.619	0.2	1249919	1250154	BlankScreen	ANTI	91	4	False	red	180	[1035 1515  405  675]	[405 885 405 675]
602.854	1.0	1250154	1251154	ELCue	ANTI	91	4	False	red	180	[1035 1515  405  675]	[405 885 405 675]
604.273	2.0	1251573	1253606	ShowFixation	VGS	92	4	False	lime	40	[ 90 570 405 675]	[1350 1830  405  675]
606.306	0.2	1253606	1253841	BlankScreen	VGS	92	4	False	lime	40	[ 90 570 405 675]	[1350 1830  405  675]
606.541	1.0	1253841	1254841	ELCue	VGS	92	4	False	lime	40	[ 90 570 405 675]	[1350 1830  405  675]
607.964	6.0	1255264	1261293	ShowFixation	ANTI	93	4	False	red	600	[ 90 570 405 675]	[1350 1830  405  675]
613.993	0.2	1261293	1261532	BlankScreen	ANTI	93	4	False	red	600	[ 90 570 405 675]	[1350 1830  405  675]
614.232	1.0	1261532	1262532	ELCue	ANTI	93	4	False	red	600	[ 90 570 405 675]	[1350 1830  405  675]
615.654	6.0	1262954	1268983	ShowFixation	VGS	94	4	False	lime	600	[1350 1830  405  675]	[ 90 570 405 675]
621.683	0.2	1268983	1269223	BlankScreen	VGS	94	4	False	lime	600	[1350 1830  405  675]	[ 90 570 405 675]
621.923	1.0	1269223	1270223	ELCue	VGS	94	4	False	lime	600	[1350 1830  405  675]	[ 90 570 405 675]
623.348	2.0	1270648	1272674	ShowFixation	ANTI	95	4	False	red	600	[ 90 570 405 675]	[1350 1830  405  675]
625.374	0.2	1272674	1272910	BlankScreen	ANTI	95	4	False	red	600	[ 90 570 405 675]	[1350 1830  405  675]
625.61	1.0	1272910	1273910	ELCue	ANTI	95	4	False	red	600	[ 90 570 405 675]	[1350 1830  405  675]
627.033	2.0	1274333	1276361	ShowFixation	ANTI	96	4	False	red	460	[405 885 405 675]	[1035 1515  405  675]
629.061	0.2	1276361	1276597	BlankScreen	ANTI	96	4	False	red	460	[405 885 405 675]	[1035 1515  405  675]
629.297	1.0	1276597	1277597	ELCue	ANTI	96	4	False	red	460	[405 885 405 675]	[1035 1515  405  675]
630.722	2.0	1278022	1280048	ShowFixation	VGS	97	4	False	lime	460	[1035 1515  405  675]	[405 885 405 675]
632.748	0.2	1280048	1280284	BlankScreen	VGS	97	4	False	lime	460	[1035 1515  405  675]	[405 885 405 675]
632.984	1.0	1280284	1281284	ELCue	VGS	97	4	False	lime	460	[1035 1515  405  675]	[405 885 405 675]
634.368	2.0	1281668	1283702	ShowFixation	ANTI	98	4	False	red	460	[405 885 405 675]	[1035 1515  405  675]
636.402	0.2	1283702	1283937	BlankScreen	ANTI	98	4	False	red	460	[405 885 405 675]	[1035 1515  405  675]
636.637	1.0	1283937	1284937	ELCue	ANTI	98	4	False	red	460	[405 885 405 675]	[1035 1515  405  675]
638.061	6.0	1285361	1291389	ShowFixation	ANTI	99	4	False	red	40	[1350 1830  405  675]	[ 90 570 405 675]
644.089	0.2	1291389	1291628	BlankScreen	ANTI	99	4	False	red	40	[1350 1830  405  675]	[ 90 570 405 675]
644.328	1.0	1291628	1292628	ELCue	ANTI	99	4	False	red	40	[1350 1830  405  675]	[ 90 570 405 675]
645.721	2.0	1293021	1295046	ShowFixation	VGS	100	4	False	lime	40	[ 90 570 405 675]	[1350 1830  405  675]
647.746	0.2	1295046	1295282	BlankScreen	VGS	100	4	False	lime	40	[ 90 570 405 675]	[1350 1830  405  675]
647.982	1.0	1295282	1296282	ELCue	VGS	100	4	False	lime	40	[ 90 570 405 675]	[1350 1830  405  675]
649.407	2.0	1296707	1298733	ShowFixation	VGS	101	4	False	lime	180	[405 885 405 675]	[1035 1515  405  675]
651.433	0.2	1298733	1298969	BlankScreen	VGS	101	4	False	lime	180	[405 885 405 675]	[1035 1515  405  675]
651.669	1.0	1298969	1299969	ELCue	VGS	101	4	False	lime	180	[405 885 405 675]	[1035 1515  405  675]
653.094	6.0	1300394	1306420	ShowFixation	ANTI	102	4	False	red	40	[1350 1830  405  675]	[ 90 570 405 675]
659.12	0.2	1306420	1306660	BlankScreen	ANTI	102	4	False	red	40	[1350 1830  405  675]	[ 90 570 405 675]
659.36	1.0	1306660	1307660	ELCue	ANTI	102	4	False	red	40	[1350 1830  405  675]	[ 90 570 405 675]
660.787	2.0	1308087	1310111	ShowFixation	ANTI	103	4	False	red	40	[1350 1830  405  675]	[ 90 570 405 675]
662.811	0.2	1310111	1310346	BlankScreen	ANTI	103	4	False	red	40	[1350 1830  405  675]	[ 90 570 405 675]
663.046	1.0	1310346	1311346	ELCue	ANTI	103	4	False	red	40	[1350 1830  405  675]	[ 90 570 405 675]
664.472	6.0	1311772	1317798	ShowFixation	VGS	104	4	False	lime	40	[ 90 570 405 675]	[1350 1830  405  675]
670.499	0.2	1317799	1318037	BlankScreen	VGS	104	4	False	lime	40	[ 90 570 405 675]	[1350 1830  405  675]
670.737	1.0	1318037	1319037	ELCue	VGS	104	4	False	lime	40	[ 90 570 405 675]	[1350 1830  405  675]
672.16	6.0	1319460	1325489	ShowFixation	ANTI	105	4	False	red	460	[405 885 405 675]	[1035 1515  405  675]
678.19	0.2	1325490	1325729	BlankScreen	ANTI	105	4	False	red	460	[405 885 405 675]	[1035 1515  405  675]
678.429	1.0	1325729	1326729	ELCue	ANTI	105	4	False	red	460	[405 885 405 675]	[1035 1515  405  675]
679.851	2.0	1327151	1329181	ShowFixation	VGS	106	4	False	lime	460	[1035 1515  405  675]	[405 885 405 675]
681.881	0.2	1329181	1329416	BlankScreen	VGS	106	4	False	lime	460	[1035 1515  405  675]	[405 885 405 675]
682.116	1.0	1329416	1330416	ELCue	VGS	106	4	False	lime	460	[1035 1515  405  675]	[405 885 405 675]
683.54	2.0	1330840	1332868	ShowFixation	VGS	107	4	False	lime	180	[405 885 405 675]	[1035 1515  405  675]
685.568	0.2	1332868	1333103	BlankScreen	VGS	107	4	False	lime	180	[405 885 405 675]	[1035 1515  405  675]
685.803	1.0	1333103	1334103	ELCue	VGS	107	4	False	lime	180	[405 885 405 675]	[1035 1515  405  675]
687.226	6.0	1334526	1340555	ShowFixation	VGS	108	4	False	lime	180	[405 885 405 675]	[1035 1515  405  675]
693.255	0.2	1340555	1340794	BlankScreen	VGS	108	4	False	lime	180	[405 885 405 675]	[1035 1515  405  675]
693.494	1.0	1340794	1341794	ELCue	VGS	108	4	False	lime	180	[405 885 405 675]	[1035 1515  405  675]
694.918	2.0	1342218	1344246	ShowFixation	ANTI	109	4	False	red	40	[1350 1830  405  675]	[ 90 570 405 675]
696.946	0.2	1344246	1344481	BlankScreen	ANTI	109	4	False	red	40	[1350 1830  405  675]	[ 90 570 405 675]
697.181	1.0	1344481	1345481	ELCue	ANTI	109	4	False	red	40	[1350 1830  405  675]	[ 90 570 405 675]
698.606	6.0	1345906	1351933	ShowFixation	VGS	110	4	False	lime	180	[405 885 405 675]	[1035 1515  405  675]
704.633	0.2	1351933	1352172	BlankScreen	VGS	110	4	False	lime	180	[405 885 405 675]	[1035 1515  405  675]
704.872	1.0	1352172	1353172	ELCue	VGS	110	4	False	lime	180	[405 885 405 675]	[1035 1515  405  675]
706.29	6.0	1353590	1359624	ShowFixation	VGS	111	4	False	lime	460	[1035 1515  405  675]	[405 885 405 675]
712.324	0.2	1359624	1359863	BlankScreen	VGS	111	4	False	lime	460	[1035 1515  405  675]	[405 885 405 675]
712.563	1.0	1359863	1360863	ELCue	VGS	111	4	False	lime	460	[1035 1515  405  675]	[405 885 405 675]
713.988	6.0	1361288	1367315	ShowFixation	ANTI	112	4	False	red	180	[1035 1515  405  675]	[405 885 405 675]
720.015	0.2	1367315	1367554	BlankScreen	ANTI	112	4	False	red	180	[1035 1515  405  675]	[405 885 405 675]
720.254	1.0	1367554	1368554	ELCue	ANTI	112	4	False	red	180	[1035 1515  405  675]	[405 885 405 675]
