participant_id	condition	accuracy	reaction_time
sub-24369	incongruent	1	0.770
sub-24369	congruent	1	0.588
sub-24369	congruent	1	0.463
sub-24369	congruent	1	0.500
sub-24369	incongruent	1	0.736
sub-24369	congruent	1	0.495
sub-24369	incongruent	1	0.658
sub-24369	congruent	1	0.552
sub-24369	congruent	1	0.445
sub-24369	incongruent	1	1.386
sub-24369	congruent	1	0.468
sub-24369	incongruent	1	0.859
sub-24369	incongruent	1	0.615
sub-24369	congruent	1	0.445
sub-24369	congruent	1	0.557
sub-24369	incongruent	1	0.591
sub-24369	incongruent	0	0.358
sub-24369	congruent	1	0.403
sub-24369	incongruent	1	0.598
sub-24369	incongruent	1	0.664
sub-24369	incongruent	1	0.610
sub-24369	incongruent	1	0.556
sub-24369	incongruent	1	0.493
sub-24369	congruent	1	0.440
sub-24369	incongruent	1	0.527
sub-24369	incongruent	1	0.468
sub-24369	incongruent	1	0.534
sub-24369	congruent	1	0.372
sub-24369	incongruent	1	0.546
sub-24369	congruent	1	0.413
sub-24369	congruent	1	0.397
sub-24369	congruent	1	0.405
sub-24369	congruent	1	0.388
sub-24369	congruent	1	0.394
sub-24369	congruent	1	0.341
sub-24369	incongruent	1	0.516
sub-24369	incongruent	1	0.536
sub-24369	congruent	1	0.333
sub-24369	incongruent	1	0.462
sub-24369	incongruent	0	0.340
sub-24369	congruent	1	0.464
sub-24369	incongruent	1	0.584
sub-24369	congruent	1	0.426
sub-24369	incongruent	1	0.644
sub-24369	congruent	1	0.420
sub-24369	incongruent	1	0.530
sub-24369	congruent	1	0.406
sub-24369	congruent	1	0.453
sub-24369	congruent	1	0.484
sub-24369	incongruent	1	0.591
sub-24369	congruent	1	0.404
sub-24369	incongruent	1	0.586
sub-24369	congruent	1	0.425
sub-24369	congruent	1	0.367
sub-24369	incongruent	1	0.617
sub-24369	congruent	1	0.439
sub-24369	incongruent	1	0.516
sub-24369	incongruent	1	0.555
sub-24369	incongruent	1	0.509
sub-24369	congruent	1	0.449
sub-24369	congruent	1	0.405
sub-24369	incongruent	1	0.395
sub-24369	incongruent	0	0.327
sub-24369	incongruent	1	0.534
sub-24369	congruent	1	0.341
sub-24369	incongruent	0	0.382
sub-24369	congruent	1	0.394
sub-24369	incongruent	1	0.554
sub-24369	congruent	1	0.365
sub-24369	incongruent	1	0.414
sub-24369	incongruent	1	0.440
sub-24369	incongruent	1	0.464
sub-24369	incongruent	1	0.469
sub-24369	incongruent	0	0.337
sub-24369	incongruent	1	0.451
sub-24369	incongruent	1	0.443
sub-24369	congruent	1	0.358
sub-24369	congruent	1	0.348
sub-24369	congruent	1	0.327
sub-24369	incongruent	0	0.325
sub-24369	congruent	1	0.364
sub-24369	incongruent	1	0.496
sub-24369	incongruent	1	1.021
sub-24369	congruent	1	0.371
sub-24369	congruent	1	0.594
sub-24369	congruent	1	0.445
sub-24369	congruent	1	0.401
sub-24369	congruent	1	0.504
sub-24369	incongruent	1	1.094
sub-24369	congruent	1	0.336
sub-24369	congruent	1	0.386
sub-24369	incongruent	0	0.585
sub-24369	incongruent	0	1.162
sub-24369	congruent	1	0.384
sub-24369	congruent	1	0.401
sub-24369	congruent	1	0.422
sub-24369	congruent	1	0.370
sub-24369	incongruent	1	0.481
sub-24369	congruent	1	0.502
sub-24369	incongruent	1	0.496
sub-24369	incongruent	1	0.767
sub-24369	incongruent	1	0.563
sub-24369	congruent	1	0.425
sub-24369	incongruent	1	0.685
sub-24369	congruent	1	0.594
sub-24369	congruent	1	0.722
sub-24369	congruent	1	0.353
sub-24369	congruent	1	0.588
sub-24369	congruent	1	0.313
sub-24369	incongruent	1	0.526
sub-24369	incongruent	1	0.579
sub-24369	congruent	1	0.342
sub-24369	incongruent	0	0.312
sub-24369	incongruent	1	0.490
sub-24369	congruent	0	0.413
sub-24369	incongruent	0	1.035
sub-24369	congruent	1	0.416
sub-24369	incongruent	1	0.817
sub-24369	incongruent	1	0.882
sub-24369	congruent	0	0.442
sub-24369	congruent	1	0.572
sub-24369	congruent	1	0.329
sub-24369	incongruent	0	0.342
sub-24369	congruent	0	0.371
sub-24369	incongruent	1	0.780
sub-24369	congruent	1	0.361
sub-24369	congruent	1	0.342
sub-24369	incongruent	0	0.328
sub-24369	incongruent	1	0.544
sub-24369	incongruent	1	0.449
sub-24369	congruent	1	0.740
sub-24369	congruent	0	0.543
sub-24369	incongruent	1	0.887
sub-24369	incongruent	1	0.478
sub-24369	congruent	0	0.444
sub-24369	incongruent	1	0.666
sub-24369	incongruent	1	0.631
sub-24369	incongruent	1	0.605
sub-24369	congruent	1	0.395
sub-24369	congruent	1	0.572
sub-24369	incongruent	1	0.543
sub-24369	incongruent	0	0.656
sub-24369	congruent	1	0.433
sub-24369	congruent	1	0.388
sub-24369	congruent	1	0.547
sub-24369	incongruent	1	0.502
sub-24369	incongruent	1	0.403
sub-24369	incongruent	1	0.631
sub-24369	incongruent	1	0.659
sub-24369	congruent	1	0.415
sub-24369	incongruent	0	0.472
sub-24369	incongruent	1	0.457
sub-24369	congruent	1	0.673
sub-24369	congruent	1	0.479
sub-24369	congruent	1	0.418
sub-24369	incongruent	1	0.532
sub-24369	congruent	1	0.339
sub-24369	incongruent	1	0.526
sub-24369	congruent	1	0.501
sub-24369	congruent	1	0.328
sub-24369	incongruent	0	0.364
sub-24369	congruent	0	0.363
sub-24369	incongruent	0	0.505
sub-24369	congruent	1	0.458
sub-24369	incongruent	1	0.458
sub-24369	incongruent	1	0.379
sub-24369	incongruent	1	0.455
sub-24369	congruent	1	0.694
sub-24369	congruent	1	0.414
sub-24369	congruent	1	0.335
sub-24369	incongruent	1	0.618
sub-24369	congruent	0	0.430
sub-24369	congruent	1	0.451
sub-24369	congruent	1	0.351
sub-24369	congruent	1	0.369
sub-24369	incongruent	0	0.320
sub-24369	incongruent	1	0.564
sub-24369	incongruent	1	0.676
sub-24369	congruent	0	0.419
sub-24369	incongruent	0	0.522
sub-24369	congruent	1	0.647
sub-24369	congruent	1	0.351
sub-24369	congruent	1	0.396
sub-24369	congruent	1	0.400
sub-24369	incongruent	0	0.373
sub-24369	congruent	1	0.368
sub-24369	incongruent	1	0.446
sub-24369	congruent	1	0.748
sub-24369	incongruent	1	0.528
sub-24369	congruent	1	0.385
sub-24369	incongruent	0	0.360
sub-24369	congruent	0	0.342
sub-24369	incongruent	0	0.465
sub-24369	congruent	0	0.628
sub-24369	congruent	1	0.484
sub-24369	incongruent	1	0.629
sub-24369	incongruent	1	0.537
sub-24369	incongruent	1	0.454
sub-24369	incongruent	1	0.447
sub-24369	congruent	0	0.353
sub-24369	congruent	1	0.357
sub-24369	congruent	1	0.321
sub-24369	incongruent	1	0.447
sub-24369	incongruent	1	0.938
sub-24369	incongruent	1	0.372
sub-24369	congruent	0	0.294
sub-24369	incongruent	0	0.556
sub-24369	incongruent	1	0.611
sub-24369	incongruent	1	0.495
sub-24369	incongruent	1	0.374
sub-24369	congruent	0	0.302
sub-24369	congruent	0	0.319
sub-24369	incongruent	1	0.296
sub-24369	incongruent	0	0.299
sub-24369	congruent	1	0.350
sub-24369	incongruent	1	0.342
sub-24369	congruent	0	0.311
sub-24369	congruent	1	0.575
sub-24369	incongruent	1	0.466
sub-24369	incongruent	0	0.397
sub-24369	incongruent	0	0.358
sub-24369	incongruent	1	0.423
sub-24369	incongruent	0	0.308
sub-24369	congruent	0	0.473
sub-24369	incongruent	1	1.109
sub-24369	incongruent	1	0.349
sub-24369	incongruent	1	0.544
sub-24369	congruent	1	0.343
sub-24369	congruent	1	0.355
sub-24369	congruent	1	0.309
sub-24369	congruent	0	0.359
sub-24369	congruent	1	0.343
sub-24369	congruent	1	0.320
sub-24369	incongruent	0	0.294
sub-24369	congruent	0	0.423
sub-24369	congruent	1	0.425
sub-24369	incongruent	0	0.280
sub-24369	congruent	0	0.326
sub-24369	congruent	1	0.327
sub-24369	incongruent	1	0.366
