onset	duration	startTime	stopTime	eventIdentifier	trial_type	trial_number	block_number	is_practice	fixation_color	cue_side	aoi_correct	aoi_incorrect
0.151	2.0	1444639	1446672	ShowFixation	ANTI	1	1	True	red	180	[1035 1515  405  675]	[405 885 405 675]
2.184	0.2	1446672	1446908	BlankScreen	ANTI	1	1	True	red	180	[1035 1515  405  675]	[405 885 405 675]
2.42	1.0	1446908	1447948	ELCue	ANTI	1	1	True	red	180	[1035 1515  405  675]	[405 885 405 675]
3.875	6.0	1448363	1454993	ShowFixation	VGS	2	1	True	lime	600	[1350 1830  405  675]	[ 90 570 405 675]
10.505	0.2	1454993	1455233	BlankScreen	VGS	2	1	True	lime	600	[1350 1830  405  675]	[ 90 570 405 675]
10.745	1.0	1455233	1456272	ELCue	VGS	2	1	True	lime	600	[1350 1830  405  675]	[ 90 570 405 675]
12.204	2.0	1456692	1459302	ShowFixation	ANTI	3	1	True	red	600	[ 90 570 405 675]	[1350 1830  405  675]
14.814	0.2	1459302	1459520	BlankScreen	ANTI	3	1	True	red	600	[ 90 570 405 675]	[1350 1830  405  675]
15.032	1.0	1459520	1460543	ELCue	ANTI	3	1	True	red	600	[ 90 570 405 675]	[1350 1830  405  675]
16.474	6.0	1460962	1467589	ShowFixation	VGS	4	1	True	lime	180	[405 885 405 675]	[1035 1515  405  675]
23.101	0.2	1467589	1467828	BlankScreen	VGS	4	1	True	lime	180	[405 885 405 675]	[1035 1515  405  675]
23.34	1.0	1467828	1468869	ELCue	VGS	4	1	True	lime	180	[405 885 405 675]	[1035 1515  405  675]
24.797	6.0	1469285	1475914	ShowFixation	ANTI	5	1	True	red	180	[1035 1515  405  675]	[405 885 405 675]
31.426	0.2	1475914	1476153	BlankScreen	ANTI	5	1	True	red	180	[1035 1515  405  675]	[405 885 405 675]
31.665	1.0	1476153	1477193	ELCue	ANTI	5	1	True	red	180	[1035 1515  405  675]	[405 885 405 675]
33.125	6.0	1477613	1484222	ShowFixation	ANTI	6	1	True	red	40	[1350 1830  405  675]	[ 90 570 405 675]
39.734	0.2	1484222	1484461	BlankScreen	ANTI	6	1	True	red	40	[1350 1830  405  675]	[ 90 570 405 675]
39.973	1.0	1484461	1485502	ELCue	ANTI	6	1	True	red	40	[1350 1830  405  675]	[ 90 570 405 675]
41.431	2.0	1485919	1488547	ShowFixation	ANTI	7	1	True	red	460	[405 885 405 675]	[1035 1515  405  675]
44.059	0.2	1488547	1488782	BlankScreen	ANTI	7	1	True	red	460	[405 885 405 675]	[1035 1515  405  675]
44.294	1.0	1488782	1489823	ELCue	ANTI	7	1	True	red	460	[405 885 405 675]	[1035 1515  405  675]
45.752	2.0	1490240	1492868	ShowFixation	VGS	8	1	True	lime	40	[ 90 570 405 675]	[1350 1830  405  675]
48.38	0.2	1492868	1493103	BlankScreen	VGS	8	1	True	lime	40	[ 90 570 405 675]	[1350 1830  405  675]
48.615	1.0	1493103	1494144	ELCue	VGS	8	1	True	lime	40	[ 90 570 405 675]	[1350 1830  405  675]
50.056	6.0	1494544	1501189	ShowFixation	VGS	9	1	True	lime	40	[ 90 570 405 675]	[1350 1830  405  675]
56.701	0.2	1501189	1501428	BlankScreen	VGS	9	1	True	lime	40	[ 90 570 405 675]	[1350 1830  405  675]
56.94	1.0	1501428	1502469	ELCue	VGS	9	1	True	lime	40	[ 90 570 405 675]	[1350 1830  405  675]
58.396	6.0	1502884	1509514	ShowFixation	ANTI	10	1	True	red	460	[405 885 405 675]	[1035 1515  405  675]
65.026	0.2	1509514	1509753	BlankScreen	ANTI	10	1	True	red	460	[405 885 405 675]	[1035 1515  405  675]
65.265	1.0	1509753	1510793	ELCue	ANTI	10	1	True	red	460	[405 885 405 675]	[1035 1515  405  675]
66.72	2.0	1511208	1513822	ShowFixation	VGS	11	1	True	lime	180	[405 885 405 675]	[1035 1515  405  675]
69.334	0.2	1513822	1514041	BlankScreen	VGS	11	1	True	lime	180	[405 885 405 675]	[1035 1515  405  675]
69.553	1.0	1514041	1515064	ELCue	VGS	11	1	True	lime	180	[405 885 405 675]	[1035 1515  405  675]
70.955	2.0	1515443	1518110	ShowFixation	ANTI	12	1	True	red	40	[1350 1830  405  675]	[ 90 570 405 675]
73.622	0.2	1518110	1518345	BlankScreen	ANTI	12	1	True	red	40	[1350 1830  405  675]	[ 90 570 405 675]
73.857	1.0	1518345	1519385	ELCue	ANTI	12	1	True	red	40	[1350 1830  405  675]	[ 90 570 405 675]
75.31	6.0	1519798	1526414	ShowFixation	VGS	13	1	True	lime	460	[1035 1515  405  675]	[405 885 405 675]
81.926	0.2	1526414	1526653	BlankScreen	VGS	13	1	True	lime	460	[1035 1515  405  675]	[405 885 405 675]
82.165	1.0	1526653	1527694	ELCue	VGS	13	1	True	lime	460	[1035 1515  405  675]	[405 885 405 675]
83.621	6.0	1528109	1534739	ShowFixation	ANTI	14	1	True	red	600	[ 90 570 405 675]	[1350 1830  405  675]
90.251	0.2	1534739	1534978	BlankScreen	ANTI	14	1	True	red	600	[ 90 570 405 675]	[1350 1830  405  675]
90.49	1.0	1534978	1536019	ELCue	ANTI	14	1	True	red	600	[ 90 570 405 675]	[1350 1830  405  675]
91.947	2.0	1536435	1539064	ShowFixation	VGS	15	1	True	lime	460	[1035 1515  405  675]	[405 885 405 675]
94.576	0.2	1539064	1539299	BlankScreen	VGS	15	1	True	lime	460	[1035 1515  405  675]	[405 885 405 675]
94.811	1.0	1539299	1540340	ELCue	VGS	15	1	True	lime	460	[1035 1515  405  675]	[405 885 405 675]
96.254	2.0	1540742	1543385	ShowFixation	VGS	16	1	True	lime	600	[1350 1830  405  675]	[ 90 570 405 675]
98.897	0.2	1543385	1543620	BlankScreen	VGS	16	1	True	lime	600	[1350 1830  405  675]	[ 90 570 405 675]
99.132	1.0	1543620	1544661	ELCue	VGS	16	1	True	lime	600	[1350 1830  405  675]	[ 90 570 405 675]
131.864	2.0	1576352	1578387	ShowFixation	VGS	17	2	False	lime	600	[1350 1830  405  675]	[ 90 570 405 675]
133.899	0.2	1578387	1578622	BlankScreen	VGS	17	2	False	lime	600	[1350 1830  405  675]	[ 90 570 405 675]
134.134	1.0	1578622	1579622	ELCue	VGS	17	2	False	lime	600	[1350 1830  405  675]	[ 90 570 405 675]
135.556	6.0	1580044	1586074	ShowFixation	ANTI	18	2	False	red	600	[ 90 570 405 675]	[1350 1830  405  675]
141.586	0.2	1586074	1586313	BlankScreen	ANTI	18	2	False	red	600	[ 90 570 405 675]	[1350 1830  405  675]
141.825	1.0	1586313	1587313	ELCue	ANTI	18	2	False	red	600	[ 90 570 405 675]	[1350 1830  405  675]
143.246	2.0	1587734	1589765	ShowFixation	VGS	19	2	False	lime	40	[ 90 570 405 675]	[1350 1830  405  675]
145.277	0.2	1589765	1590000	BlankScreen	VGS	19	2	False	lime	40	[ 90 570 405 675]	[1350 1830  405  675]
145.512	1.0	1590000	1591000	ELCue	VGS	19	2	False	lime	40	[ 90 570 405 675]	[1350 1830  405  675]
146.934	6.0	1591422	1597452	ShowFixation	VGS	20	2	False	lime	460	[1035 1515  405  675]	[405 885 405 675]
152.964	0.2	1597452	1597691	BlankScreen	VGS	20	2	False	lime	460	[1035 1515  405  675]	[405 885 405 675]
153.203	1.0	1597691	1598691	ELCue	VGS	20	2	False	lime	460	[1035 1515  405  675]	[405 885 405 675]
154.626	2.0	1599114	1601142	ShowFixation	ANTI	21	2	False	red	600	[ 90 570 405 675]	[1350 1830  405  675]
156.654	0.2	1601142	1601378	BlankScreen	ANTI	21	2	False	red	600	[ 90 570 405 675]	[1350 1830  405  675]
156.89	1.0	1601378	1602378	ELCue	ANTI	21	2	False	red	600	[ 90 570 405 675]	[1350 1830  405  675]
158.31	2.0	1602798	1604829	ShowFixation	ANTI	22	2	False	red	460	[405 885 405 675]	[1035 1515  405  675]
160.341	0.2	1604829	1605065	BlankScreen	ANTI	22	2	False	red	460	[405 885 405 675]	[1035 1515  405  675]
160.577	1.0	1605065	1606065	ELCue	ANTI	22	2	False	red	460	[405 885 405 675]	[1035 1515  405  675]
162.0	2.0	1606488	1608516	ShowFixation	VGS	23	2	False	lime	180	[405 885 405 675]	[1035 1515  405  675]
164.028	0.2	1608516	1608752	BlankScreen	VGS	23	2	False	lime	180	[405 885 405 675]	[1035 1515  405  675]
164.264	1.0	1608752	1609752	ELCue	VGS	23	2	False	lime	180	[405 885 405 675]	[1035 1515  405  675]
165.685	2.0	1610173	1612203	ShowFixation	ANTI	24	2	False	red	40	[1350 1830  405  675]	[ 90 570 405 675]
167.715	0.2	1612203	1612439	BlankScreen	ANTI	24	2	False	red	40	[1350 1830  405  675]	[ 90 570 405 675]
167.951	1.0	1612439	1613439	ELCue	ANTI	24	2	False	red	40	[1350 1830  405  675]	[ 90 570 405 675]
169.382	2.0	1613870	1615907	ShowFixation	ANTI	25	2	False	red	600	[ 90 570 405 675]	[1350 1830  405  675]
171.419	0.2	1615907	1616142	BlankScreen	ANTI	25	2	False	red	600	[ 90 570 405 675]	[1350 1830  405  675]
171.654	1.0	1616142	1617142	ELCue	ANTI	25	2	False	red	600	[ 90 570 405 675]	[1350 1830  405  675]
173.074	6.0	1617562	1623594	ShowFixation	VGS	26	2	False	lime	600	[1350 1830  405  675]	[ 90 570 405 675]
179.106	0.2	1623594	1623833	BlankScreen	VGS	26	2	False	lime	600	[1350 1830  405  675]	[ 90 570 405 675]
179.345	1.0	1623833	1624833	ELCue	VGS	26	2	False	lime	600	[1350 1830  405  675]	[ 90 570 405 675]
180.768	2.0	1625256	1627285	ShowFixation	VGS	27	2	False	lime	40	[ 90 570 405 675]	[1350 1830  405  675]
182.797	0.2	1627285	1627520	BlankScreen	VGS	27	2	False	lime	40	[ 90 570 405 675]	[1350 1830  405  675]
183.032	1.0	1627520	1628520	ELCue	VGS	27	2	False	lime	40	[ 90 570 405 675]	[1350 1830  405  675]
184.454	2.0	1628942	1630972	ShowFixation	ANTI	28	2	False	red	460	[405 885 405 675]	[1035 1515  405  675]
186.484	0.2	1630972	1631207	BlankScreen	ANTI	28	2	False	red	460	[405 885 405 675]	[1035 1515  405  675]
186.719	1.0	1631207	1632207	ELCue	ANTI	28	2	False	red	460	[405 885 405 675]	[1035 1515  405  675]
188.106	6.0	1632594	1638626	ShowFixation	VGS	29	2	False	lime	40	[ 90 570 405 675]	[1350 1830  405  675]
194.138	0.2	1638626	1638865	BlankScreen	VGS	29	2	False	lime	40	[ 90 570 405 675]	[1350 1830  405  675]
194.377	1.0	1638865	1639865	ELCue	VGS	29	2	False	lime	40	[ 90 570 405 675]	[1350 1830  405  675]
195.793	6.0	1640281	1646316	ShowFixation	VGS	30	2	False	lime	40	[ 90 570 405 675]	[1350 1830  405  675]
201.828	0.2	1646316	1646556	BlankScreen	VGS	30	2	False	lime	40	[ 90 570 405 675]	[1350 1830  405  675]
202.068	1.0	1646556	1647556	ELCue	VGS	30	2	False	lime	40	[ 90 570 405 675]	[1350 1830  405  675]
203.489	6.0	1647977	1654007	ShowFixation	VGS	31	2	False	lime	600	[1350 1830  405  675]	[ 90 570 405 675]
209.519	0.2	1654007	1654247	BlankScreen	VGS	31	2	False	lime	600	[1350 1830  405  675]	[ 90 570 405 675]
209.759	1.0	1654247	1655247	ELCue	VGS	31	2	False	lime	600	[1350 1830  405  675]	[ 90 570 405 675]
211.179	6.0	1655667	1661698	ShowFixation	ANTI	32	2	False	red	180	[1035 1515  405  675]	[405 885 405 675]
217.21	0.2	1661698	1661938	BlankScreen	ANTI	32	2	False	red	180	[1035 1515  405  675]	[405 885 405 675]
217.45	1.0	1661938	1662938	ELCue	ANTI	32	2	False	red	180	[1035 1515  405  675]	[405 885 405 675]
218.865	2.0	1663353	1665389	ShowFixation	VGS	33	2	False	lime	600	[1350 1830  405  675]	[ 90 570 405 675]
220.901	0.2	1665389	1665625	BlankScreen	VGS	33	2	False	lime	600	[1350 1830  405  675]	[ 90 570 405 675]
221.137	1.0	1665625	1666625	ELCue	VGS	33	2	False	lime	600	[1350 1830  405  675]	[ 90 570 405 675]
222.558	2.0	1667046	1669076	ShowFixation	ANTI	34	2	False	red	180	[1035 1515  405  675]	[405 885 405 675]
224.588	0.2	1669076	1669312	BlankScreen	ANTI	34	2	False	red	180	[1035 1515  405  675]	[405 885 405 675]
224.824	1.0	1669312	1670312	ELCue	ANTI	34	2	False	red	180	[1035 1515  405  675]	[405 885 405 675]
226.241	6.0	1670729	1676763	ShowFixation	ANTI	35	2	False	red	180	[1035 1515  405  675]	[405 885 405 675]
232.275	0.2	1676763	1677002	BlankScreen	ANTI	35	2	False	red	180	[1035 1515  405  675]	[405 885 405 675]
232.514	1.0	1677002	1678002	ELCue	ANTI	35	2	False	red	180	[1035 1515  405  675]	[405 885 405 675]
233.936	6.0	1678424	1684454	ShowFixation	VGS	36	2	False	lime	180	[405 885 405 675]	[1035 1515  405  675]
239.966	0.2	1684454	1684693	BlankScreen	VGS	36	2	False	lime	180	[405 885 405 675]	[1035 1515  405  675]
240.205	1.0	1684693	1685693	ELCue	VGS	36	2	False	lime	180	[405 885 405 675]	[1035 1515  405  675]
241.596	2.0	1686084	1688112	ShowFixation	VGS	37	2	False	lime	180	[405 885 405 675]	[1035 1515  405  675]
243.625	0.2	1688113	1688347	BlankScreen	VGS	37	2	False	lime	180	[405 885 405 675]	[1035 1515  405  675]
243.859	1.0	1688347	1689347	ELCue	VGS	37	2	False	lime	180	[405 885 405 675]	[1035 1515  405  675]
245.278	6.0	1689766	1695799	ShowFixation	ANTI	38	2	False	red	460	[405 885 405 675]	[1035 1515  405  675]
251.311	0.2	1695799	1696039	BlankScreen	ANTI	38	2	False	red	460	[405 885 405 675]	[1035 1515  405  675]
251.551	1.0	1696039	1697039	ELCue	ANTI	38	2	False	red	460	[405 885 405 675]	[1035 1515  405  675]
252.972	6.0	1697460	1703491	ShowFixation	ANTI	39	2	False	red	600	[ 90 570 405 675]	[1350 1830  405  675]
259.003	0.2	1703491	1703730	BlankScreen	ANTI	39	2	False	red	600	[ 90 570 405 675]	[1350 1830  405  675]
259.242	1.0	1703730	1704730	ELCue	ANTI	39	2	False	red	600	[ 90 570 405 675]	[1350 1830  405  675]
260.662	2.0	1705150	1707181	ShowFixation	ANTI	40	2	False	red	180	[1035 1515  405  675]	[405 885 405 675]
262.693	0.2	1707181	1707417	BlankScreen	ANTI	40	2	False	red	180	[1035 1515  405  675]	[405 885 405 675]
262.929	1.0	1707417	1708417	ELCue	ANTI	40	2	False	red	180	[1035 1515  405  675]	[405 885 405 675]
264.346	6.0	1708834	1714868	ShowFixation	ANTI	41	2	False	red	460	[405 885 405 675]	[1035 1515  405  675]
270.38	0.2	1714868	1715108	BlankScreen	ANTI	41	2	False	red	460	[405 885 405 675]	[1035 1515  405  675]
270.62	1.0	1715108	1716108	ELCue	ANTI	41	2	False	red	460	[405 885 405 675]	[1035 1515  405  675]
272.042	2.0	1716530	1718559	ShowFixation	VGS	42	2	False	lime	460	[1035 1515  405  675]	[405 885 405 675]
274.071	0.2	1718559	1718795	BlankScreen	VGS	42	2	False	lime	460	[1035 1515  405  675]	[405 885 405 675]
274.307	1.0	1718795	1719795	ELCue	VGS	42	2	False	lime	460	[1035 1515  405  675]	[405 885 405 675]
275.728	2.0	1720216	1722246	ShowFixation	VGS	43	2	False	lime	460	[1035 1515  405  675]	[405 885 405 675]
277.758	0.2	1722246	1722482	BlankScreen	VGS	43	2	False	lime	460	[1035 1515  405  675]	[405 885 405 675]
277.994	1.0	1722482	1723482	ELCue	VGS	43	2	False	lime	460	[1035 1515  405  675]	[405 885 405 675]
279.41	6.0	1723898	1729933	ShowFixation	ANTI	44	2	False	red	40	[1350 1830  405  675]	[ 90 570 405 675]
285.445	0.2	1729933	1730173	BlankScreen	ANTI	44	2	False	red	40	[1350 1830  405  675]	[ 90 570 405 675]
285.685	1.0	1730173	1731173	ELCue	ANTI	44	2	False	red	40	[1350 1830  405  675]	[ 90 570 405 675]
287.103	6.0	1731591	1737624	ShowFixation	VGS	45	2	False	lime	180	[405 885 405 675]	[1035 1515  405  675]
293.136	0.2	1737624	1737864	BlankScreen	VGS	45	2	False	lime	180	[405 885 405 675]	[1035 1515  405  675]
293.376	1.0	1737864	1738864	ELCue	VGS	45	2	False	lime	180	[405 885 405 675]	[1035 1515  405  675]
294.794	6.0	1739282	1745315	ShowFixation	VGS	46	2	False	lime	460	[1035 1515  405  675]	[405 885 405 675]
300.827	0.2	1745315	1745554	BlankScreen	VGS	46	2	False	lime	460	[1035 1515  405  675]	[405 885 405 675]
301.066	1.0	1745554	1746554	ELCue	VGS	46	2	False	lime	460	[1035 1515  405  675]	[405 885 405 675]
302.487	2.0	1746975	1749006	ShowFixation	ANTI	47	2	False	red	40	[1350 1830  405  675]	[ 90 570 405 675]
304.518	0.2	1749006	1749241	BlankScreen	ANTI	47	2	False	red	40	[1350 1830  405  675]	[ 90 570 405 675]
304.753	1.0	1749241	1750241	ELCue	ANTI	47	2	False	red	40	[1350 1830  405  675]	[ 90 570 405 675]
306.173	6.0	1750661	1756693	ShowFixation	ANTI	48	2	False	red	40	[1350 1830  405  675]	[ 90 570 405 675]
312.205	0.2	1756693	1756932	BlankScreen	ANTI	48	2	False	red	40	[1350 1830  405  675]	[ 90 570 405 675]
312.444	1.0	1756932	1757932	ELCue	ANTI	48	2	False	red	40	[1350 1830  405  675]	[ 90 570 405 675]
383.89	6.0	1828378	1834403	ShowFixation	ANTI	49	3	False	red	40	[1350 1830  405  675]	[ 90 570 405 675]
389.915	0.2	1834403	1834642	BlankScreen	ANTI	49	3	False	red	40	[1350 1830  405  675]	[ 90 570 405 675]
390.154	1.0	1834642	1835642	ELCue	ANTI	49	3	False	red	40	[1350 1830  405  675]	[ 90 570 405 675]
391.576	2.0	1836064	1838094	ShowFixation	VGS	50	3	False	lime	460	[1035 1515  405  675]	[405 885 405 675]
393.606	0.2	1838094	1838329	BlankScreen	VGS	50	3	False	lime	460	[1035 1515  405  675]	[405 885 405 675]
393.842	1.0	1838330	1839330	ELCue	VGS	50	3	False	lime	460	[1035 1515  405  675]	[405 885 405 675]
395.269	2.0	1839757	1841781	ShowFixation	ANTI	51	3	False	red	40	[1350 1830  405  675]	[ 90 570 405 675]
397.294	0.2	1841782	1842017	BlankScreen	ANTI	51	3	False	red	40	[1350 1830  405  675]	[ 90 570 405 675]
397.529	1.0	1842017	1843017	ELCue	ANTI	51	3	False	red	40	[1350 1830  405  675]	[ 90 570 405 675]
398.945	2.0	1843433	1845469	ShowFixation	ANTI	52	3	False	red	180	[1035 1515  405  675]	[405 885 405 675]
400.981	0.2	1845469	1845704	BlankScreen	ANTI	52	3	False	red	180	[1035 1515  405  675]	[405 885 405 675]
401.216	1.0	1845704	1846704	ELCue	ANTI	52	3	False	red	180	[1035 1515  405  675]	[405 885 405 675]
402.616	2.0	1847104	1849139	ShowFixation	ANTI	53	3	False	red	600	[ 90 570 405 675]	[1350 1830  405  675]
404.651	0.2	1849139	1849375	BlankScreen	ANTI	53	3	False	red	600	[ 90 570 405 675]	[1350 1830  405  675]
404.887	1.0	1849375	1850375	ELCue	ANTI	53	3	False	red	600	[ 90 570 405 675]	[1350 1830  405  675]
406.309	6.0	1850797	1856826	ShowFixation	ANTI	54	3	False	red	180	[1035 1515  405  675]	[405 885 405 675]
412.338	0.2	1856826	1857065	BlankScreen	ANTI	54	3	False	red	180	[1035 1515  405  675]	[405 885 405 675]
412.577	1.0	1857065	1858065	ELCue	ANTI	54	3	False	red	180	[1035 1515  405  675]	[405 885 405 675]
414.0	2.0	1858488	1860517	ShowFixation	ANTI	55	3	False	red	460	[405 885 405 675]	[1035 1515  405  675]
416.029	0.2	1860517	1860752	BlankScreen	ANTI	55	3	False	red	460	[405 885 405 675]	[1035 1515  405  675]
416.264	1.0	1860752	1861752	ELCue	ANTI	55	3	False	red	460	[405 885 405 675]	[1035 1515  405  675]
417.667	2.0	1862155	1864187	ShowFixation	VGS	56	3	False	lime	40	[ 90 570 405 675]	[1350 1830  405  675]
419.699	0.2	1864187	1864423	BlankScreen	VGS	56	3	False	lime	40	[ 90 570 405 675]	[1350 1830  405  675]
419.935	1.0	1864423	1865423	ELCue	VGS	56	3	False	lime	40	[ 90 570 405 675]	[1350 1830  405  675]
421.352	6.0	1865840	1871874	ShowFixation	VGS	57	3	False	lime	40	[ 90 570 405 675]	[1350 1830  405  675]
427.386	0.2	1871874	1872114	BlankScreen	VGS	57	3	False	lime	40	[ 90 570 405 675]	[1350 1830  405  675]
427.626	1.0	1872114	1873114	ELCue	VGS	57	3	False	lime	40	[ 90 570 405 675]	[1350 1830  405  675]
429.047	6.0	1873535	1879565	ShowFixation	ANTI	58	3	False	red	460	[405 885 405 675]	[1035 1515  405  675]
435.077	0.2	1879565	1879805	BlankScreen	ANTI	58	3	False	red	460	[405 885 405 675]	[1035 1515  405  675]
435.317	1.0	1879805	1880805	ELCue	ANTI	58	3	False	red	460	[405 885 405 675]	[1035 1515  405  675]
436.738	2.0	1881226	1883256	ShowFixation	VGS	59	3	False	lime	180	[405 885 405 675]	[1035 1515  405  675]
438.768	0.2	1883256	1883492	BlankScreen	VGS	59	3	False	lime	180	[405 885 405 675]	[1035 1515  405  675]
439.004	1.0	1883492	1884492	ELCue	VGS	59	3	False	lime	180	[405 885 405 675]	[1035 1515  405  675]
440.426	2.0	1884914	1886943	ShowFixation	ANTI	60	3	False	red	180	[1035 1515  405  675]	[405 885 405 675]
442.455	0.2	1886943	1887178	BlankScreen	ANTI	60	3	False	red	180	[1035 1515  405  675]	[405 885 405 675]
442.69	1.0	1887178	1888178	ELCue	ANTI	60	3	False	red	180	[1035 1515  405  675]	[405 885 405 675]
444.113	2.0	1888601	1890630	ShowFixation	ANTI	61	3	False	red	40	[1350 1830  405  675]	[ 90 570 405 675]
446.142	0.2	1890630	1890865	BlankScreen	ANTI	61	3	False	red	40	[1350 1830  405  675]	[ 90 570 405 675]
446.377	1.0	1890865	1891865	ELCue	ANTI	61	3	False	red	40	[1350 1830  405  675]	[ 90 570 405 675]
447.799	6.0	1892287	1898317	ShowFixation	VGS	62	3	False	lime	460	[1035 1515  405  675]	[405 885 405 675]
453.829	0.2	1898317	1898556	BlankScreen	VGS	62	3	False	lime	460	[1035 1515  405  675]	[405 885 405 675]
454.068	1.0	1898556	1899556	ELCue	VGS	62	3	False	lime	460	[1035 1515  405  675]	[405 885 405 675]
455.491	2.0	1899979	1902008	ShowFixation	VGS	63	3	False	lime	40	[ 90 570 405 675]	[1350 1830  405  675]
457.52	0.2	1902008	1902243	BlankScreen	VGS	63	3	False	lime	40	[ 90 570 405 675]	[1350 1830  405  675]
457.755	1.0	1902243	1903243	ELCue	VGS	63	3	False	lime	40	[ 90 570 405 675]	[1350 1830  405  675]
459.16	2.0	1903648	1905678	ShowFixation	VGS	64	3	False	lime	180	[405 885 405 675]	[1035 1515  405  675]
461.19	0.2	1905678	1905914	BlankScreen	VGS	64	3	False	lime	180	[405 885 405 675]	[1035 1515  405  675]
461.426	1.0	1905914	1906914	ELCue	VGS	64	3	False	lime	180	[405 885 405 675]	[1035 1515  405  675]
462.848	6.0	1907336	1913365	ShowFixation	ANTI	65	3	False	red	180	[1035 1515  405  675]	[405 885 405 675]
468.877	0.2	1913365	1913605	BlankScreen	ANTI	65	3	False	red	180	[1035 1515  405  675]	[405 885 405 675]
469.117	1.0	1913605	1914605	ELCue	ANTI	65	3	False	red	180	[1035 1515  405  675]	[405 885 405 675]
470.541	2.0	1915029	1917056	ShowFixation	ANTI	66	3	False	red	460	[405 885 405 675]	[1035 1515  405  675]
472.568	0.2	1917056	1917292	BlankScreen	ANTI	66	3	False	red	460	[405 885 405 675]	[1035 1515  405  675]
472.804	1.0	1917292	1918292	ELCue	ANTI	66	3	False	red	460	[405 885 405 675]	[1035 1515  405  675]
474.225	6.0	1918713	1924743	ShowFixation	VGS	67	3	False	lime	40	[ 90 570 405 675]	[1350 1830  405  675]
480.255	0.2	1924743	1924982	BlankScreen	VGS	67	3	False	lime	40	[ 90 570 405 675]	[1350 1830  405  675]
480.494	1.0	1924982	1925982	ELCue	VGS	67	3	False	lime	40	[ 90 570 405 675]	[1350 1830  405  675]
481.916	6.0	1926404	1932434	ShowFixation	VGS	68	3	False	lime	180	[405 885 405 675]	[1035 1515  405  675]
487.946	0.2	1932434	1932673	BlankScreen	VGS	68	3	False	lime	180	[405 885 405 675]	[1035 1515  405  675]
488.185	1.0	1932673	1933673	ELCue	VGS	68	3	False	lime	180	[405 885 405 675]	[1035 1515  405  675]
489.603	6.0	1934091	1940125	ShowFixation	ANTI	69	3	False	red	600	[ 90 570 405 675]	[1350 1830  405  675]
495.637	0.2	1940125	1940364	BlankScreen	ANTI	69	3	False	red	600	[ 90 570 405 675]	[1350 1830  405  675]
495.876	1.0	1940364	1941364	ELCue	ANTI	69	3	False	red	600	[ 90 570 405 675]	[1350 1830  405  675]
497.297	2.0	1941785	1943816	ShowFixation	VGS	70	3	False	lime	460	[1035 1515  405  675]	[405 885 405 675]
499.328	0.2	1943816	1944051	BlankScreen	VGS	70	3	False	lime	460	[1035 1515  405  675]	[405 885 405 675]
499.563	1.0	1944051	1945051	ELCue	VGS	70	3	False	lime	460	[1035 1515  405  675]	[405 885 405 675]
500.981	2.0	1945469	1947503	ShowFixation	ANTI	71	3	False	red	600	[ 90 570 405 675]	[1350 1830  405  675]
503.015	0.2	1947503	1947738	BlankScreen	ANTI	71	3	False	red	600	[ 90 570 405 675]	[1350 1830  405  675]
503.25	1.0	1947738	1948738	ELCue	ANTI	71	3	False	red	600	[ 90 570 405 675]	[1350 1830  405  675]
504.672	6.0	1949160	1955190	ShowFixation	VGS	72	3	False	lime	180	[405 885 405 675]	[1035 1515  405  675]
510.702	0.2	1955190	1955429	BlankScreen	VGS	72	3	False	lime	180	[405 885 405 675]	[1035 1515  405  675]
510.941	1.0	1955429	1956429	ELCue	VGS	72	3	False	lime	180	[405 885 405 675]	[1035 1515  405  675]
512.366	6.0	1956854	1962881	ShowFixation	ANTI	73	3	False	red	600	[ 90 570 405 675]	[1350 1830  405  675]
518.393	0.2	1962881	1963120	BlankScreen	ANTI	73	3	False	red	600	[ 90 570 405 675]	[1350 1830  405  675]
518.632	1.0	1963120	1964120	ELCue	ANTI	73	3	False	red	600	[ 90 570 405 675]	[1350 1830  405  675]
520.054	6.0	1964542	1970572	ShowFixation	VGS	74	3	False	lime	600	[1350 1830  405  675]	[ 90 570 405 675]
526.084	0.2	1970572	1970811	BlankScreen	VGS	74	3	False	lime	600	[1350 1830  405  675]	[ 90 570 405 675]
526.323	1.0	1970811	1971811	ELCue	VGS	74	3	False	lime	600	[1350 1830  405  675]	[ 90 570 405 675]
527.747	6.0	1972235	1978264	ShowFixation	VGS	75	3	False	lime	460	[1035 1515  405  675]	[405 885 405 675]
533.776	0.2	1978264	1978503	BlankScreen	VGS	75	3	False	lime	460	[1035 1515  405  675]	[405 885 405 675]
534.015	1.0	1978503	1979503	ELCue	VGS	75	3	False	lime	460	[1035 1515  405  675]	[405 885 405 675]
535.433	6.0	1979921	1985955	ShowFixation	VGS	76	3	False	lime	600	[1350 1830  405  675]	[ 90 570 405 675]
541.467	0.2	1985955	1986194	BlankScreen	VGS	76	3	False	lime	600	[1350 1830  405  675]	[ 90 570 405 675]
541.706	1.0	1986194	1987194	ELCue	VGS	76	3	False	lime	600	[1350 1830  405  675]	[ 90 570 405 675]
543.127	6.0	1987615	1993645	ShowFixation	ANTI	77	3	False	red	40	[1350 1830  405  675]	[ 90 570 405 675]
549.157	0.2	1993645	1993885	BlankScreen	ANTI	77	3	False	red	40	[1350 1830  405  675]	[ 90 570 405 675]
549.397	1.0	1993885	1994885	ELCue	ANTI	77	3	False	red	40	[1350 1830  405  675]	[ 90 570 405 675]
550.815	2.0	1995303	1997336	ShowFixation	VGS	78	3	False	lime	600	[1350 1830  405  675]	[ 90 570 405 675]
552.848	0.2	1997336	1997572	BlankScreen	VGS	78	3	False	lime	600	[1350 1830  405  675]	[ 90 570 405 675]
553.084	1.0	1997572	1998572	ELCue	VGS	78	3	False	lime	600	[1350 1830  405  675]	[ 90 570 405 675]
554.502	6.0	1998990	2005023	ShowFixation	ANTI	79	3	False	red	460	[405 885 405 675]	[1035 1515  405  675]
560.535	0.2	2005023	2005263	BlankScreen	ANTI	79	3	False	red	460	[405 885 405 675]	[1035 1515  405  675]
560.775	1.0	2005263	2006263	ELCue	ANTI	79	3	False	red	460	[405 885 405 675]	[1035 1515  405  675]
562.196	2.0	2006684	2008714	ShowFixation	VGS	80	3	False	lime	600	[1350 1830  405  675]	[ 90 570 405 675]
564.226	0.2	2008714	2008950	BlankScreen	VGS	80	3	False	lime	600	[1350 1830  405  675]	[ 90 570 405 675]
564.462	1.0	2008950	2009950	ELCue	VGS	80	3	False	lime	600	[1350 1830  405  675]	[ 90 570 405 675]
586.975	2.0	2031463	2033489	ShowFixation	VGS	81	4	False	lime	600	[1350 1830  405  675]	[ 90 570 405 675]
589.001	0.2	2033489	2033724	BlankScreen	VGS	81	4	False	lime	600	[1350 1830  405  675]	[ 90 570 405 675]
589.236	1.0	2033724	2034724	ELCue	VGS	81	4	False	lime	600	[1350 1830  405  675]	[ 90 570 405 675]
590.657	6.0	2035145	2041176	ShowFixation	ANTI	82	4	False	red	40	[1350 1830  405  675]	[ 90 570 405 675]
596.688	0.2	2041176	2041415	BlankScreen	ANTI	82	4	False	red	40	[1350 1830  405  675]	[ 90 570 405 675]
596.927	1.0	2041415	2042415	ELCue	ANTI	82	4	False	red	40	[1350 1830  405  675]	[ 90 570 405 675]
598.347	2.0	2042835	2044867	ShowFixation	VGS	83	4	False	lime	180	[405 885 405 675]	[1035 1515  405  675]
600.379	0.2	2044867	2045102	BlankScreen	VGS	83	4	False	lime	180	[405 885 405 675]	[1035 1515  405  675]
600.614	1.0	2045102	2046102	ELCue	VGS	83	4	False	lime	180	[405 885 405 675]	[1035 1515  405  675]
602.033	6.0	2046521	2052554	ShowFixation	VGS	84	4	False	lime	600	[1350 1830  405  675]	[ 90 570 405 675]
608.066	0.2	2052554	2052793	BlankScreen	VGS	84	4	False	lime	600	[1350 1830  405  675]	[ 90 570 405 675]
608.305	1.0	2052793	2053793	ELCue	VGS	84	4	False	lime	600	[1350 1830  405  675]	[ 90 570 405 675]
609.722	2.0	2054210	2056245	ShowFixation	VGS	85	4	False	lime	600	[1350 1830  405  675]	[ 90 570 405 675]
611.757	0.2	2056245	2056480	BlankScreen	VGS	85	4	False	lime	600	[1350 1830  405  675]	[ 90 570 405 675]
611.992	1.0	2056480	2057480	ELCue	VGS	85	4	False	lime	600	[1350 1830  405  675]	[ 90 570 405 675]
613.407	6.0	2057895	2063932	ShowFixation	ANTI	86	4	False	red	180	[1035 1515  405  675]	[405 885 405 675]
619.444	0.2	2063932	2064171	BlankScreen	ANTI	86	4	False	red	180	[1035 1515  405  675]	[405 885 405 675]
619.683	1.0	2064171	2065171	ELCue	ANTI	86	4	False	red	180	[1035 1515  405  675]	[405 885 405 675]
621.107	2.0	2065595	2067622	ShowFixation	ANTI	87	4	False	red	40	[1350 1830  405  675]	[ 90 570 405 675]
623.134	0.2	2067622	2067858	BlankScreen	ANTI	87	4	False	red	40	[1350 1830  405  675]	[ 90 570 405 675]
623.37	1.0	2067858	2068858	ELCue	ANTI	87	4	False	red	40	[1350 1830  405  675]	[ 90 570 405 675]
624.794	6.0	2069282	2075309	ShowFixation	ANTI	88	4	False	red	180	[1035 1515  405  675]	[405 885 405 675]
630.821	0.2	2075309	2075549	BlankScreen	ANTI	88	4	False	red	180	[1035 1515  405  675]	[405 885 405 675]
631.061	1.0	2075549	2076549	ELCue	ANTI	88	4	False	red	180	[1035 1515  405  675]	[405 885 405 675]
632.481	6.0	2076969	2083000	ShowFixation	ANTI	89	4	False	red	600	[ 90 570 405 675]	[1350 1830  405  675]
638.512	0.2	2083000	2083240	BlankScreen	ANTI	89	4	False	red	600	[ 90 570 405 675]	[1350 1830  405  675]
638.752	1.0	2083240	2084240	ELCue	ANTI	89	4	False	red	600	[ 90 570 405 675]	[1350 1830  405  675]
640.176	2.0	2084664	2086691	ShowFixation	VGS	90	4	False	lime	40	[ 90 570 405 675]	[1350 1830  405  675]
642.203	0.2	2086691	2086927	BlankScreen	VGS	90	4	False	lime	40	[ 90 570 405 675]	[1350 1830  405  675]
642.439	1.0	2086927	2087927	ELCue	VGS	90	4	False	lime	40	[ 90 570 405 675]	[1350 1830  405  675]
643.857	6.0	2088345	2094378	ShowFixation	VGS	91	4	False	lime	40	[ 90 570 405 675]	[1350 1830  405  675]
649.891	0.2	2094379	2094618	BlankScreen	VGS	91	4	False	lime	40	[ 90 570 405 675]	[1350 1830  405  675]
650.13	1.0	2094618	2095618	ELCue	VGS	91	4	False	lime	40	[ 90 570 405 675]	[1350 1830  405  675]
651.532	6.0	2096020	2102052	ShowFixation	VGS	92	4	False	lime	40	[ 90 570 405 675]	[1350 1830  405  675]
657.565	0.2	2102053	2102292	BlankScreen	VGS	92	4	False	lime	40	[ 90 570 405 675]	[1350 1830  405  675]
657.805	1.0	2102293	2103293	ELCue	VGS	92	4	False	lime	40	[ 90 570 405 675]	[1350 1830  405  675]
659.228	2.0	2103716	2105743	ShowFixation	ANTI	93	4	False	red	460	[405 885 405 675]	[1035 1515  405  675]
661.256	0.2	2105744	2105979	BlankScreen	ANTI	93	4	False	red	460	[405 885 405 675]	[1035 1515  405  675]
661.492	1.0	2105980	2106980	ELCue	ANTI	93	4	False	red	460	[405 885 405 675]	[1035 1515  405  675]
662.909	6.0	2107397	2113431	ShowFixation	ANTI	94	4	False	red	460	[405 885 405 675]	[1035 1515  405  675]
668.943	0.2	2113431	2113671	BlankScreen	ANTI	94	4	False	red	460	[405 885 405 675]	[1035 1515  405  675]
669.183	1.0	2113671	2114671	ELCue	ANTI	94	4	False	red	460	[405 885 405 675]	[1035 1515  405  675]
670.571	2.0	2115059	2117089	ShowFixation	ANTI	95	4	False	red	40	[1350 1830  405  675]	[ 90 570 405 675]
672.601	0.2	2117089	2117324	BlankScreen	ANTI	95	4	False	red	40	[1350 1830  405  675]	[ 90 570 405 675]
672.836	1.0	2117324	2118324	ELCue	ANTI	95	4	False	red	40	[1350 1830  405  675]	[ 90 570 405 675]
674.257	2.0	2118745	2120776	ShowFixation	ANTI	96	4	False	red	180	[1035 1515  405  675]	[405 885 405 675]
676.288	0.2	2120776	2121011	BlankScreen	ANTI	96	4	False	red	180	[1035 1515  405  675]	[405 885 405 675]
676.523	1.0	2121011	2122011	ELCue	ANTI	96	4	False	red	180	[1035 1515  405  675]	[405 885 405 675]
677.931	2.0	2122419	2124446	ShowFixation	VGS	97	4	False	lime	180	[405 885 405 675]	[1035 1515  405  675]
679.958	0.2	2124446	2124681	BlankScreen	VGS	97	4	False	lime	180	[405 885 405 675]	[1035 1515  405  675]
680.193	1.0	2124681	2125681	ELCue	VGS	97	4	False	lime	180	[405 885 405 675]	[1035 1515  405  675]
681.599	2.0	2126087	2128116	ShowFixation	ANTI	98	4	False	red	600	[ 90 570 405 675]	[1350 1830  405  675]
683.628	0.2	2128116	2128352	BlankScreen	ANTI	98	4	False	red	600	[ 90 570 405 675]	[1350 1830  405  675]
683.864	1.0	2128352	2129352	ELCue	ANTI	98	4	False	red	600	[ 90 570 405 675]	[1350 1830  405  675]
685.286	2.0	2129774	2131803	ShowFixation	VGS	99	4	False	lime	460	[1035 1515  405  675]	[405 885 405 675]
687.315	0.2	2131803	2132039	BlankScreen	VGS	99	4	False	lime	460	[1035 1515  405  675]	[405 885 405 675]
687.551	1.0	2132039	2133039	ELCue	VGS	99	4	False	lime	460	[1035 1515  405  675]	[405 885 405 675]
688.972	6.0	2133460	2139490	ShowFixation	VGS	100	4	False	lime	460	[1035 1515  405  675]	[405 885 405 675]
695.002	0.2	2139490	2139730	BlankScreen	VGS	100	4	False	lime	460	[1035 1515  405  675]	[405 885 405 675]
695.242	1.0	2139730	2140730	ELCue	VGS	100	4	False	lime	460	[1035 1515  405  675]	[405 885 405 675]
696.661	2.0	2141149	2143181	ShowFixation	ANTI	101	4	False	red	180	[1035 1515  405  675]	[405 885 405 675]
698.693	0.2	2143181	2143417	BlankScreen	ANTI	101	4	False	red	180	[1035 1515  405  675]	[405 885 405 675]
698.929	1.0	2143417	2144417	ELCue	ANTI	101	4	False	red	180	[1035 1515  405  675]	[405 885 405 675]
700.355	6.0	2144843	2150868	ShowFixation	ANTI	102	4	False	red	600	[ 90 570 405 675]	[1350 1830  405  675]
706.38	0.2	2150868	2151108	BlankScreen	ANTI	102	4	False	red	600	[ 90 570 405 675]	[1350 1830  405  675]
706.62	1.0	2151108	2152108	ELCue	ANTI	102	4	False	red	600	[ 90 570 405 675]	[1350 1830  405  675]
708.039	6.0	2152527	2158559	ShowFixation	ANTI	103	4	False	red	460	[405 885 405 675]	[1035 1515  405  675]
714.071	0.2	2158559	2158798	BlankScreen	ANTI	103	4	False	red	460	[405 885 405 675]	[1035 1515  405  675]
714.31	1.0	2158798	2159798	ELCue	ANTI	103	4	False	red	460	[405 885 405 675]	[1035 1515  405  675]
715.732	2.0	2160220	2162250	ShowFixation	ANTI	104	4	False	red	600	[ 90 570 405 675]	[1350 1830  405  675]
717.762	0.2	2162250	2162485	BlankScreen	ANTI	104	4	False	red	600	[ 90 570 405 675]	[1350 1830  405  675]
717.997	1.0	2162485	2163485	ELCue	ANTI	104	4	False	red	600	[ 90 570 405 675]	[1350 1830  405  675]
719.417	2.0	2163905	2165937	ShowFixation	VGS	105	4	False	lime	40	[ 90 570 405 675]	[1350 1830  405  675]
721.449	0.2	2165937	2166172	BlankScreen	VGS	105	4	False	lime	40	[ 90 570 405 675]	[1350 1830  405  675]
721.684	1.0	2166172	2167172	ELCue	VGS	105	4	False	lime	40	[ 90 570 405 675]	[1350 1830  405  675]
723.106	2.0	2167594	2169624	ShowFixation	ANTI	106	4	False	red	460	[405 885 405 675]	[1035 1515  405  675]
725.136	0.2	2169624	2169859	BlankScreen	ANTI	106	4	False	red	460	[405 885 405 675]	[1035 1515  405  675]
725.371	1.0	2169859	2170859	ELCue	ANTI	106	4	False	red	460	[405 885 405 675]	[1035 1515  405  675]
726.789	6.0	2171277	2177311	ShowFixation	VGS	107	4	False	lime	600	[1350 1830  405  675]	[ 90 570 405 675]
732.823	0.2	2177311	2177550	BlankScreen	VGS	107	4	False	lime	600	[1350 1830  405  675]	[ 90 570 405 675]
733.062	1.0	2177550	2178550	ELCue	VGS	107	4	False	lime	600	[1350 1830  405  675]	[ 90 570 405 675]
734.483	2.0	2178971	2181002	ShowFixation	VGS	108	4	False	lime	460	[1035 1515  405  675]	[405 885 405 675]
736.514	0.2	2181002	2181237	BlankScreen	VGS	108	4	False	lime	460	[1035 1515  405  675]	[405 885 405 675]
736.749	1.0	2181237	2182237	ELCue	VGS	108	4	False	lime	460	[1035 1515  405  675]	[405 885 405 675]
738.165	6.0	2182653	2188689	ShowFixation	VGS	109	4	False	lime	180	[405 885 405 675]	[1035 1515  405  675]
744.201	0.2	2188689	2188928	BlankScreen	VGS	109	4	False	lime	180	[405 885 405 675]	[1035 1515  405  675]
744.44	1.0	2188928	2189928	ELCue	VGS	109	4	False	lime	180	[405 885 405 675]	[1035 1515  405  675]
745.857	6.0	2190345	2196380	ShowFixation	ANTI	110	4	False	red	40	[1350 1830  405  675]	[ 90 570 405 675]
751.892	0.2	2196380	2196619	BlankScreen	ANTI	110	4	False	red	40	[1350 1830  405  675]	[ 90 570 405 675]
752.131	1.0	2196619	2197619	ELCue	ANTI	110	4	False	red	40	[1350 1830  405  675]	[ 90 570 405 675]
753.552	6.0	2198040	2204071	ShowFixation	VGS	111	4	False	lime	180	[405 885 405 675]	[1035 1515  405  675]
759.583	0.2	2204071	2204310	BlankScreen	VGS	111	4	False	lime	180	[405 885 405 675]	[1035 1515  405  675]
759.822	1.0	2204310	2205310	ELCue	VGS	111	4	False	lime	180	[405 885 405 675]	[1035 1515  405  675]
761.24	6.0	2205728	2211762	ShowFixation	VGS	112	4	False	lime	460	[1035 1515  405  675]	[405 885 405 675]
767.274	0.2	2211762	2212001	BlankScreen	VGS	112	4	False	lime	460	[1035 1515  405  675]	[405 885 405 675]
767.513	1.0	2212001	2213001	ELCue	VGS	112	4	False	lime	460	[1035 1515  405  675]	[405 885 405 675]
