onset	duration	startTime	stopTime	eventIdentifier	trial_type	trial_number	block_number	is_practice	fixation_color	cue_side	aoi_correct	aoi_incorrect
0.152	6.0	795550	801582	ShowFixation	ANTI	1	1	True	red	600	[ 90 570 405 675]	[1350 1830  405  675]
6.184	0.2	801582	801821	BlankScreen	ANTI	1	1	True	red	600	[ 90 570 405 675]	[1350 1830  405  675]
6.423	1.0	801821	802883	ELCue	ANTI	1	1	True	red	600	[ 90 570 405 675]	[1350 1830  405  675]
7.912	6.0	803310	809940	ShowFixation	VGS	2	1	True	lime	600	[1350 1830  405  675]	[ 90 570 405 675]
14.542	0.2	809940	810179	BlankScreen	VGS	2	1	True	lime	600	[1350 1830  405  675]	[ 90 570 405 675]
14.781	1.0	810179	811220	ELCue	VGS	2	1	True	lime	600	[1350 1830  405  675]	[ 90 570 405 675]
16.242	2.0	811640	814265	ShowFixation	ANTI	3	1	True	red	600	[ 90 570 405 675]	[1350 1830  405  675]
18.867	0.2	814265	814500	BlankScreen	ANTI	3	1	True	red	600	[ 90 570 405 675]	[1350 1830  405  675]
19.102	1.0	814500	815541	ELCue	ANTI	3	1	True	red	600	[ 90 570 405 675]	[1350 1830  405  675]
20.523	2.0	815921	818586	ShowFixation	ANTI	4	1	True	red	180	[1035 1515  405  675]	[405 885 405 675]
23.188	0.2	818586	818821	BlankScreen	ANTI	4	1	True	red	180	[1035 1515  405  675]	[405 885 405 675]
23.423	1.0	818821	819861	ELCue	ANTI	4	1	True	red	180	[1035 1515  405  675]	[405 885 405 675]
24.882	2.0	820280	822907	ShowFixation	VGS	5	1	True	lime	460	[1035 1515  405  675]	[405 885 405 675]
27.509	0.2	822907	823142	BlankScreen	VGS	5	1	True	lime	460	[1035 1515  405  675]	[405 885 405 675]
27.744	1.0	823142	824182	ELCue	VGS	5	1	True	lime	460	[1035 1515  405  675]	[405 885 405 675]
29.207	6.0	824605	831228	ShowFixation	VGS	6	1	True	lime	460	[1035 1515  405  675]	[405 885 405 675]
35.83	0.2	831228	831467	BlankScreen	VGS	6	1	True	lime	460	[1035 1515  405  675]	[405 885 405 675]
36.069	1.0	831467	832507	ELCue	VGS	6	1	True	lime	460	[1035 1515  405  675]	[405 885 405 675]
37.531	2.0	832929	835552	ShowFixation	VGS	7	1	True	lime	180	[405 885 405 675]	[1035 1515  405  675]
40.154	0.2	835552	835788	BlankScreen	VGS	7	1	True	lime	180	[405 885 405 675]	[1035 1515  405  675]
40.39	1.0	835788	836828	ELCue	VGS	7	1	True	lime	180	[405 885 405 675]	[1035 1515  405  675]
41.846	6.0	837244	843873	ShowFixation	ANTI	8	1	True	red	460	[405 885 405 675]	[1035 1515  405  675]
48.475	0.2	843873	844113	BlankScreen	ANTI	8	1	True	red	460	[405 885 405 675]	[1035 1515  405  675]
48.715	1.0	844113	845153	ELCue	ANTI	8	1	True	red	460	[405 885 405 675]	[1035 1515  405  675]
50.173	2.0	845571	848198	ShowFixation	VGS	9	1	True	lime	40	[ 90 570 405 675]	[1350 1830  405  675]
52.8	0.2	848198	848434	BlankScreen	VGS	9	1	True	lime	40	[ 90 570 405 675]	[1350 1830  405  675]
53.036	1.0	848434	849474	ELCue	VGS	9	1	True	lime	40	[ 90 570 405 675]	[1350 1830  405  675]
54.492	2.0	849890	852503	ShowFixation	ANTI	10	1	True	red	460	[405 885 405 675]	[1035 1515  405  675]
57.105	0.2	852503	852721	BlankScreen	ANTI	10	1	True	red	460	[405 885 405 675]	[1035 1515  405  675]
57.323	1.0	852721	853745	ELCue	ANTI	10	1	True	red	460	[405 885 405 675]	[1035 1515  405  675]
58.762	2.0	854160	856790	ShowFixation	VGS	11	1	True	lime	600	[1350 1830  405  675]	[ 90 570 405 675]
61.392	0.2	856790	857025	BlankScreen	VGS	11	1	True	lime	600	[1350 1830  405  675]	[ 90 570 405 675]
61.627	1.0	857025	858066	ELCue	VGS	11	1	True	lime	600	[1350 1830  405  675]	[ 90 570 405 675]
63.084	6.0	858482	865111	ShowFixation	ANTI	12	1	True	red	180	[1035 1515  405  675]	[405 885 405 675]
69.713	0.2	865111	865350	BlankScreen	ANTI	12	1	True	red	180	[1035 1515  405  675]	[405 885 405 675]
69.952	1.0	865350	866391	ELCue	ANTI	12	1	True	red	180	[1035 1515  405  675]	[405 885 405 675]
71.417	2.0	866815	869436	ShowFixation	ANTI	13	1	True	red	40	[1350 1830  405  675]	[ 90 570 405 675]
74.038	0.2	869436	869671	BlankScreen	ANTI	13	1	True	red	40	[1350 1830  405  675]	[ 90 570 405 675]
74.273	1.0	869671	870712	ELCue	ANTI	13	1	True	red	40	[1350 1830  405  675]	[ 90 570 405 675]
75.729	6.0	871127	877757	ShowFixation	VGS	14	1	True	lime	180	[405 885 405 675]	[1035 1515  405  675]
82.359	0.2	877757	877996	BlankScreen	VGS	14	1	True	lime	180	[405 885 405 675]	[1035 1515  405  675]
82.598	1.0	877996	879037	ELCue	VGS	14	1	True	lime	180	[405 885 405 675]	[1035 1515  405  675]
84.052	6.0	879450	886082	ShowFixation	VGS	15	1	True	lime	40	[ 90 570 405 675]	[1350 1830  405  675]
90.684	0.2	886082	886321	BlankScreen	VGS	15	1	True	lime	40	[ 90 570 405 675]	[1350 1830  405  675]
90.923	1.0	886321	887362	ELCue	VGS	15	1	True	lime	40	[ 90 570 405 675]	[1350 1830  405  675]
92.384	6.0	887782	894391	ShowFixation	ANTI	16	1	True	red	40	[1350 1830  405  675]	[ 90 570 405 675]
98.993	0.2	894391	894629	BlankScreen	ANTI	16	1	True	red	40	[1350 1830  405  675]	[ 90 570 405 675]
99.231	1.0	894629	895670	ELCue	ANTI	16	1	True	red	40	[1350 1830  405  675]	[ 90 570 405 675]
143.0	6.0	938398	944424	ShowFixation	ANTI	17	2	False	red	460	[405 885 405 675]	[1035 1515  405  675]
149.026	0.2	944424	944663	BlankScreen	ANTI	17	2	False	red	460	[405 885 405 675]	[1035 1515  405  675]
149.265	1.0	944663	945663	ELCue	ANTI	17	2	False	red	460	[405 885 405 675]	[1035 1515  405  675]
150.688	2.0	946086	948115	ShowFixation	ANTI	18	2	False	red	460	[405 885 405 675]	[1035 1515  405  675]
152.717	0.2	948115	948350	BlankScreen	ANTI	18	2	False	red	460	[405 885 405 675]	[1035 1515  405  675]
152.952	1.0	948350	949350	ELCue	ANTI	18	2	False	red	460	[405 885 405 675]	[1035 1515  405  675]
154.376	2.0	949774	951802	ShowFixation	ANTI	19	2	False	red	180	[1035 1515  405  675]	[405 885 405 675]
156.404	0.2	951802	952037	BlankScreen	ANTI	19	2	False	red	180	[1035 1515  405  675]	[405 885 405 675]
156.639	1.0	952037	953037	ELCue	ANTI	19	2	False	red	180	[1035 1515  405  675]	[405 885 405 675]
158.027	2.0	953425	955455	ShowFixation	ANTI	20	2	False	red	40	[1350 1830  405  675]	[ 90 570 405 675]
160.057	0.2	955455	955690	BlankScreen	ANTI	20	2	False	red	40	[1350 1830  405  675]	[ 90 570 405 675]
160.292	1.0	955690	956690	ELCue	ANTI	20	2	False	red	40	[1350 1830  405  675]	[ 90 570 405 675]
161.714	2.0	957112	959142	ShowFixation	VGS	21	2	False	lime	180	[405 885 405 675]	[1035 1515  405  675]
163.744	0.2	959142	959377	BlankScreen	VGS	21	2	False	lime	180	[405 885 405 675]	[1035 1515  405  675]
163.979	1.0	959377	960377	ELCue	VGS	21	2	False	lime	180	[405 885 405 675]	[1035 1515  405  675]
165.404	6.0	960802	966829	ShowFixation	VGS	22	2	False	lime	40	[ 90 570 405 675]	[1350 1830  405  675]
171.431	0.2	966829	967068	BlankScreen	VGS	22	2	False	lime	40	[ 90 570 405 675]	[1350 1830  405  675]
171.67	1.0	967068	968068	ELCue	VGS	22	2	False	lime	40	[ 90 570 405 675]	[1350 1830  405  675]
173.094	6.0	968492	974520	ShowFixation	VGS	23	2	False	lime	460	[1035 1515  405  675]	[405 885 405 675]
179.122	0.2	974520	974759	BlankScreen	VGS	23	2	False	lime	460	[1035 1515  405  675]	[405 885 405 675]
179.361	1.0	974759	975759	ELCue	VGS	23	2	False	lime	460	[1035 1515  405  675]	[405 885 405 675]
180.787	2.0	976185	978211	ShowFixation	VGS	24	2	False	lime	180	[405 885 405 675]	[1035 1515  405  675]
182.813	0.2	978211	978446	BlankScreen	VGS	24	2	False	lime	180	[405 885 405 675]	[1035 1515  405  675]
183.048	1.0	978446	979446	ELCue	VGS	24	2	False	lime	180	[405 885 405 675]	[1035 1515  405  675]
184.472	6.0	979870	985898	ShowFixation	VGS	25	2	False	lime	460	[1035 1515  405  675]	[405 885 405 675]
190.5	0.2	985898	986137	BlankScreen	VGS	25	2	False	lime	460	[1035 1515  405  675]	[405 885 405 675]
190.739	1.0	986137	987137	ELCue	VGS	25	2	False	lime	460	[1035 1515  405  675]	[405 885 405 675]
192.162	6.0	987560	993589	ShowFixation	VGS	26	2	False	lime	40	[ 90 570 405 675]	[1350 1830  405  675]
198.191	0.2	993589	993828	BlankScreen	VGS	26	2	False	lime	40	[ 90 570 405 675]	[1350 1830  405  675]
198.43	1.0	993828	994828	ELCue	VGS	26	2	False	lime	40	[ 90 570 405 675]	[1350 1830  405  675]
199.852	2.0	995250	997280	ShowFixation	ANTI	27	2	False	red	460	[405 885 405 675]	[1035 1515  405  675]
201.882	0.2	997280	997515	BlankScreen	ANTI	27	2	False	red	460	[405 885 405 675]	[1035 1515  405  675]
202.117	1.0	997515	998515	ELCue	ANTI	27	2	False	red	460	[405 885 405 675]	[1035 1515  405  675]
203.54	2.0	998938	1000967	ShowFixation	VGS	28	2	False	lime	600	[1350 1830  405  675]	[ 90 570 405 675]
205.569	0.2	1000967	1001202	BlankScreen	VGS	28	2	False	lime	600	[1350 1830  405  675]	[ 90 570 405 675]
205.804	1.0	1001202	1002202	ELCue	VGS	28	2	False	lime	600	[1350 1830  405  675]	[ 90 570 405 675]
207.232	2.0	1002630	1004670	ShowFixation	ANTI	29	2	False	red	180	[1035 1515  405  675]	[405 885 405 675]
209.272	0.2	1004670	1004906	BlankScreen	ANTI	29	2	False	red	180	[1035 1515  405  675]	[405 885 405 675]
209.508	1.0	1004906	1005906	ELCue	ANTI	29	2	False	red	180	[1035 1515  405  675]	[405 885 405 675]
210.932	6.0	1006330	1012357	ShowFixation	VGS	30	2	False	lime	180	[405 885 405 675]	[1035 1515  405  675]
216.959	0.2	1012357	1012597	BlankScreen	VGS	30	2	False	lime	180	[405 885 405 675]	[1035 1515  405  675]
217.199	1.0	1012597	1013597	ELCue	VGS	30	2	False	lime	180	[405 885 405 675]	[1035 1515  405  675]
218.62	2.0	1014018	1016048	ShowFixation	ANTI	31	2	False	red	40	[1350 1830  405  675]	[ 90 570 405 675]
220.65	0.2	1016048	1016284	BlankScreen	ANTI	31	2	False	red	40	[1350 1830  405  675]	[ 90 570 405 675]
220.886	1.0	1016284	1017284	ELCue	ANTI	31	2	False	red	40	[1350 1830  405  675]	[ 90 570 405 675]
222.308	6.0	1017706	1023735	ShowFixation	ANTI	32	2	False	red	40	[1350 1830  405  675]	[ 90 570 405 675]
228.337	0.2	1023735	1023975	BlankScreen	ANTI	32	2	False	red	40	[1350 1830  405  675]	[ 90 570 405 675]
228.577	1.0	1023975	1024975	ELCue	ANTI	32	2	False	red	40	[1350 1830  405  675]	[ 90 570 405 675]
229.999	6.0	1025397	1031426	ShowFixation	ANTI	33	2	False	red	600	[ 90 570 405 675]	[1350 1830  405  675]
236.028	0.2	1031426	1031666	BlankScreen	ANTI	33	2	False	red	600	[ 90 570 405 675]	[1350 1830  405  675]
236.268	1.0	1031666	1032666	ELCue	ANTI	33	2	False	red	600	[ 90 570 405 675]	[1350 1830  405  675]
237.692	6.0	1033090	1039117	ShowFixation	ANTI	34	2	False	red	40	[1350 1830  405  675]	[ 90 570 405 675]
243.719	0.2	1039117	1039356	BlankScreen	ANTI	34	2	False	red	40	[1350 1830  405  675]	[ 90 570 405 675]
243.958	1.0	1039356	1040356	ELCue	ANTI	34	2	False	red	40	[1350 1830  405  675]	[ 90 570 405 675]
245.384	2.0	1040782	1042808	ShowFixation	VGS	35	2	False	lime	460	[1035 1515  405  675]	[405 885 405 675]
247.41	0.2	1042808	1043043	BlankScreen	VGS	35	2	False	lime	460	[1035 1515  405  675]	[405 885 405 675]
247.645	1.0	1043043	1044043	ELCue	VGS	35	2	False	lime	460	[1035 1515  405  675]	[405 885 405 675]
249.07	2.0	1044468	1046495	ShowFixation	VGS	36	2	False	lime	40	[ 90 570 405 675]	[1350 1830  405  675]
251.097	0.2	1046495	1046730	BlankScreen	VGS	36	2	False	lime	40	[ 90 570 405 675]	[1350 1830  405  675]
251.332	1.0	1046730	1047730	ELCue	VGS	36	2	False	lime	40	[ 90 570 405 675]	[1350 1830  405  675]
252.758	2.0	1048156	1050182	ShowFixation	ANTI	37	2	False	red	600	[ 90 570 405 675]	[1350 1830  405  675]
254.784	0.2	1050182	1050417	BlankScreen	ANTI	37	2	False	red	600	[ 90 570 405 675]	[1350 1830  405  675]
255.02	1.0	1050418	1051418	ELCue	ANTI	37	2	False	red	600	[ 90 570 405 675]	[1350 1830  405  675]
256.442	2.0	1051840	1053869	ShowFixation	VGS	38	2	False	lime	460	[1035 1515  405  675]	[405 885 405 675]
258.472	0.2	1053870	1054104	BlankScreen	VGS	38	2	False	lime	460	[1035 1515  405  675]	[405 885 405 675]
258.706	1.0	1054104	1055104	ELCue	VGS	38	2	False	lime	460	[1035 1515  405  675]	[405 885 405 675]
260.131	2.0	1055529	1057556	ShowFixation	VGS	39	2	False	lime	600	[1350 1830  405  675]	[ 90 570 405 675]
262.159	0.2	1057557	1057792	BlankScreen	VGS	39	2	False	lime	600	[1350 1830  405  675]	[ 90 570 405 675]
262.394	1.0	1057792	1058792	ELCue	VGS	39	2	False	lime	600	[1350 1830  405  675]	[ 90 570 405 675]
263.816	6.0	1059214	1065244	ShowFixation	ANTI	40	2	False	red	460	[405 885 405 675]	[1035 1515  405  675]
269.846	0.2	1065244	1065483	BlankScreen	ANTI	40	2	False	red	460	[405 885 405 675]	[1035 1515  405  675]
270.085	1.0	1065483	1066483	ELCue	ANTI	40	2	False	red	460	[405 885 405 675]	[1035 1515  405  675]
271.507	6.0	1066905	1072935	ShowFixation	ANTI	41	2	False	red	180	[1035 1515  405  675]	[405 885 405 675]
277.537	0.2	1072935	1073174	BlankScreen	ANTI	41	2	False	red	180	[1035 1515  405  675]	[405 885 405 675]
277.776	1.0	1073174	1074174	ELCue	ANTI	41	2	False	red	180	[1035 1515  405  675]	[405 885 405 675]
279.198	2.0	1074596	1076626	ShowFixation	VGS	42	2	False	lime	40	[ 90 570 405 675]	[1350 1830  405  675]
281.228	0.2	1076626	1076861	BlankScreen	VGS	42	2	False	lime	40	[ 90 570 405 675]	[1350 1830  405  675]
281.463	1.0	1076861	1077861	ELCue	VGS	42	2	False	lime	40	[ 90 570 405 675]	[1350 1830  405  675]
282.884	2.0	1078282	1080313	ShowFixation	ANTI	43	2	False	red	600	[ 90 570 405 675]	[1350 1830  405  675]
284.915	0.2	1080313	1080548	BlankScreen	ANTI	43	2	False	red	600	[ 90 570 405 675]	[1350 1830  405  675]
285.15	1.0	1080548	1081548	ELCue	ANTI	43	2	False	red	600	[ 90 570 405 675]	[1350 1830  405  675]
286.572	6.0	1081970	1088000	ShowFixation	ANTI	44	2	False	red	180	[1035 1515  405  675]	[405 885 405 675]
292.602	0.2	1088000	1088239	BlankScreen	ANTI	44	2	False	red	180	[1035 1515  405  675]	[405 885 405 675]
292.841	1.0	1088239	1089239	ELCue	ANTI	44	2	False	red	180	[1035 1515  405  675]	[405 885 405 675]
294.265	6.0	1089663	1095691	ShowFixation	VGS	45	2	False	lime	180	[405 885 405 675]	[1035 1515  405  675]
300.293	0.2	1095691	1095930	BlankScreen	VGS	45	2	False	lime	180	[405 885 405 675]	[1035 1515  405  675]
300.532	1.0	1095930	1096930	ELCue	VGS	45	2	False	lime	180	[405 885 405 675]	[1035 1515  405  675]
301.957	6.0	1097355	1103382	ShowFixation	ANTI	46	2	False	red	600	[ 90 570 405 675]	[1350 1830  405  675]
307.984	0.2	1103382	1103621	BlankScreen	ANTI	46	2	False	red	600	[ 90 570 405 675]	[1350 1830  405  675]
308.223	1.0	1103621	1104621	ELCue	ANTI	46	2	False	red	600	[ 90 570 405 675]	[1350 1830  405  675]
309.645	6.0	1105043	1111073	ShowFixation	VGS	47	2	False	lime	600	[1350 1830  405  675]	[ 90 570 405 675]
315.675	0.2	1111073	1111312	BlankScreen	VGS	47	2	False	lime	600	[1350 1830  405  675]	[ 90 570 405 675]
315.914	1.0	1111312	1112312	ELCue	VGS	47	2	False	lime	600	[1350 1830  405  675]	[ 90 570 405 675]
317.336	6.0	1112734	1118763	ShowFixation	VGS	48	2	False	lime	600	[1350 1830  405  675]	[ 90 570 405 675]
323.365	0.2	1118763	1119003	BlankScreen	VGS	48	2	False	lime	600	[1350 1830  405  675]	[ 90 570 405 675]
323.605	1.0	1119003	1120003	ELCue	VGS	48	2	False	lime	600	[1350 1830  405  675]	[ 90 570 405 675]
348.984	6.0	1144382	1150411	ShowFixation	VGS	49	3	False	lime	460	[1035 1515  405  675]	[405 885 405 675]
355.013	0.2	1150411	1150651	BlankScreen	VGS	49	3	False	lime	460	[1035 1515  405  675]	[405 885 405 675]
355.253	1.0	1150651	1151651	ELCue	VGS	49	3	False	lime	460	[1035 1515  405  675]	[405 885 405 675]
356.676	6.0	1152074	1158102	ShowFixation	ANTI	50	3	False	red	180	[1035 1515  405  675]	[405 885 405 675]
362.704	0.2	1158102	1158342	BlankScreen	ANTI	50	3	False	red	180	[1035 1515  405  675]	[405 885 405 675]
362.944	1.0	1158342	1159342	ELCue	ANTI	50	3	False	red	180	[1035 1515  405  675]	[405 885 405 675]
364.37	2.0	1159768	1161793	ShowFixation	VGS	51	3	False	lime	460	[1035 1515  405  675]	[405 885 405 675]
366.395	0.2	1161793	1162029	BlankScreen	VGS	51	3	False	lime	460	[1035 1515  405  675]	[405 885 405 675]
366.631	1.0	1162029	1163029	ELCue	VGS	51	3	False	lime	460	[1035 1515  405  675]	[405 885 405 675]
368.054	6.0	1163452	1169480	ShowFixation	VGS	52	3	False	lime	460	[1035 1515  405  675]	[405 885 405 675]
374.082	0.2	1169480	1169720	BlankScreen	VGS	52	3	False	lime	460	[1035 1515  405  675]	[405 885 405 675]
374.322	1.0	1169720	1170720	ELCue	VGS	52	3	False	lime	460	[1035 1515  405  675]	[405 885 405 675]
375.886	2.0	1171284	1173321	ShowFixation	ANTI	53	3	False	red	40	[1350 1830  405  675]	[ 90 570 405 675]
377.923	0.2	1173321	1173557	BlankScreen	ANTI	53	3	False	red	40	[1350 1830  405  675]	[ 90 570 405 675]
378.159	1.0	1173557	1174557	ELCue	ANTI	53	3	False	red	40	[1350 1830  405  675]	[ 90 570 405 675]
379.581	6.0	1174979	1181008	ShowFixation	ANTI	54	3	False	red	600	[ 90 570 405 675]	[1350 1830  405  675]
385.61	0.2	1181008	1181249	BlankScreen	ANTI	54	3	False	red	600	[ 90 570 405 675]	[1350 1830  405  675]
385.851	1.0	1181249	1182249	ELCue	ANTI	54	3	False	red	600	[ 90 570 405 675]	[1350 1830  405  675]
387.274	6.0	1182672	1188699	ShowFixation	ANTI	55	3	False	red	180	[1035 1515  405  675]	[405 885 405 675]
393.301	0.2	1188699	1188938	BlankScreen	ANTI	55	3	False	red	180	[1035 1515  405  675]	[405 885 405 675]
393.54	1.0	1188938	1189938	ELCue	ANTI	55	3	False	red	180	[1035 1515  405  675]	[405 885 405 675]
394.962	2.0	1190360	1192390	ShowFixation	VGS	56	3	False	lime	40	[ 90 570 405 675]	[1350 1830  405  675]
396.993	0.2	1192391	1192625	BlankScreen	VGS	56	3	False	lime	40	[ 90 570 405 675]	[1350 1830  405  675]
397.228	1.0	1192626	1193626	ELCue	VGS	56	3	False	lime	40	[ 90 570 405 675]	[1350 1830  405  675]
398.652	6.0	1194050	1200078	ShowFixation	VGS	57	3	False	lime	40	[ 90 570 405 675]	[1350 1830  405  675]
404.68	0.2	1200078	1200317	BlankScreen	VGS	57	3	False	lime	40	[ 90 570 405 675]	[1350 1830  405  675]
404.919	1.0	1200317	1201317	ELCue	VGS	57	3	False	lime	40	[ 90 570 405 675]	[1350 1830  405  675]
406.344	6.0	1201742	1207769	ShowFixation	ANTI	58	3	False	red	600	[ 90 570 405 675]	[1350 1830  405  675]
412.371	0.2	1207769	1208008	BlankScreen	ANTI	58	3	False	red	600	[ 90 570 405 675]	[1350 1830  405  675]
412.61	1.0	1208008	1209008	ELCue	ANTI	58	3	False	red	600	[ 90 570 405 675]	[1350 1830  405  675]
414.034	6.0	1209432	1215460	ShowFixation	VGS	59	3	False	lime	180	[405 885 405 675]	[1035 1515  405  675]
420.062	0.2	1215460	1215699	BlankScreen	VGS	59	3	False	lime	180	[405 885 405 675]	[1035 1515  405  675]
420.301	1.0	1215699	1216699	ELCue	VGS	59	3	False	lime	180	[405 885 405 675]	[1035 1515  405  675]
421.726	6.0	1217124	1223151	ShowFixation	ANTI	60	3	False	red	40	[1350 1830  405  675]	[ 90 570 405 675]
427.753	0.2	1223151	1223390	BlankScreen	ANTI	60	3	False	red	40	[1350 1830  405  675]	[ 90 570 405 675]
427.992	1.0	1223390	1224390	ELCue	ANTI	60	3	False	red	40	[1350 1830  405  675]	[ 90 570 405 675]
429.42	2.0	1224818	1226858	ShowFixation	ANTI	61	3	False	red	600	[ 90 570 405 675]	[1350 1830  405  675]
431.46	0.2	1226858	1227094	BlankScreen	ANTI	61	3	False	red	600	[ 90 570 405 675]	[1350 1830  405  675]
431.696	1.0	1227094	1228094	ELCue	ANTI	61	3	False	red	600	[ 90 570 405 675]	[1350 1830  405  675]
433.12	2.0	1228518	1230545	ShowFixation	ANTI	62	3	False	red	180	[1035 1515  405  675]	[405 885 405 675]
435.147	0.2	1230545	1230781	BlankScreen	ANTI	62	3	False	red	180	[1035 1515  405  675]	[405 885 405 675]
435.383	1.0	1230781	1231781	ELCue	ANTI	62	3	False	red	180	[1035 1515  405  675]	[405 885 405 675]
436.805	6.0	1232203	1238232	ShowFixation	ANTI	63	3	False	red	460	[405 885 405 675]	[1035 1515  405  675]
442.834	0.2	1238232	1238472	BlankScreen	ANTI	63	3	False	red	460	[405 885 405 675]	[1035 1515  405  675]
443.074	1.0	1238472	1239472	ELCue	ANTI	63	3	False	red	460	[405 885 405 675]	[1035 1515  405  675]
444.5	2.0	1239898	1241923	ShowFixation	ANTI	64	3	False	red	40	[1350 1830  405  675]	[ 90 570 405 675]
446.525	0.2	1241923	1242159	BlankScreen	ANTI	64	3	False	red	40	[1350 1830  405  675]	[ 90 570 405 675]
446.761	1.0	1242159	1243159	ELCue	ANTI	64	3	False	red	40	[1350 1830  405  675]	[ 90 570 405 675]
448.186	6.0	1243584	1249610	ShowFixation	VGS	65	3	False	lime	40	[ 90 570 405 675]	[1350 1830  405  675]
454.212	0.2	1249610	1249850	BlankScreen	VGS	65	3	False	lime	40	[ 90 570 405 675]	[1350 1830  405  675]
454.452	1.0	1249850	1250850	ELCue	VGS	65	3	False	lime	40	[ 90 570 405 675]	[1350 1830  405  675]
455.878	6.0	1251276	1257301	ShowFixation	ANTI	66	3	False	red	40	[1350 1830  405  675]	[ 90 570 405 675]
461.903	0.2	1257301	1257540	BlankScreen	ANTI	66	3	False	red	40	[1350 1830  405  675]	[ 90 570 405 675]
462.142	1.0	1257540	1258540	ELCue	ANTI	66	3	False	red	40	[1350 1830  405  675]	[ 90 570 405 675]
463.564	6.0	1258962	1264992	ShowFixation	ANTI	67	3	False	red	460	[405 885 405 675]	[1035 1515  405  675]
469.594	0.2	1264992	1265231	BlankScreen	ANTI	67	3	False	red	460	[405 885 405 675]	[1035 1515  405  675]
469.833	1.0	1265231	1266231	ELCue	ANTI	67	3	False	red	460	[405 885 405 675]	[1035 1515  405  675]
471.258	2.0	1266656	1268683	ShowFixation	VGS	68	3	False	lime	460	[1035 1515  405  675]	[405 885 405 675]
473.285	0.2	1268683	1268918	BlankScreen	VGS	68	3	False	lime	460	[1035 1515  405  675]	[405 885 405 675]
473.52	1.0	1268918	1269918	ELCue	VGS	68	3	False	lime	460	[1035 1515  405  675]	[405 885 405 675]
474.944	2.0	1270342	1272370	ShowFixation	VGS	69	3	False	lime	180	[405 885 405 675]	[1035 1515  405  675]
476.972	0.2	1272370	1272605	BlankScreen	VGS	69	3	False	lime	180	[405 885 405 675]	[1035 1515  405  675]
477.207	1.0	1272605	1273605	ELCue	VGS	69	3	False	lime	180	[405 885 405 675]	[1035 1515  405  675]
478.614	2.0	1274012	1276040	ShowFixation	VGS	70	3	False	lime	600	[1350 1830  405  675]	[ 90 570 405 675]
480.642	0.2	1276040	1276276	BlankScreen	VGS	70	3	False	lime	600	[1350 1830  405  675]	[ 90 570 405 675]
480.878	1.0	1276276	1277276	ELCue	VGS	70	3	False	lime	600	[1350 1830  405  675]	[ 90 570 405 675]
482.304	6.0	1277702	1283727	ShowFixation	VGS	71	3	False	lime	600	[1350 1830  405  675]	[ 90 570 405 675]
488.329	0.2	1283727	1283967	BlankScreen	VGS	71	3	False	lime	600	[1350 1830  405  675]	[ 90 570 405 675]
488.569	1.0	1283967	1284967	ELCue	VGS	71	3	False	lime	600	[1350 1830  405  675]	[ 90 570 405 675]
489.995	2.0	1285393	1287418	ShowFixation	VGS	72	3	False	lime	600	[1350 1830  405  675]	[ 90 570 405 675]
492.02	0.2	1287418	1287654	BlankScreen	VGS	72	3	False	lime	600	[1350 1830  405  675]	[ 90 570 405 675]
492.256	1.0	1287654	1288654	ELCue	VGS	72	3	False	lime	600	[1350 1830  405  675]	[ 90 570 405 675]
493.681	2.0	1289079	1291105	ShowFixation	ANTI	73	3	False	red	460	[405 885 405 675]	[1035 1515  405  675]
495.707	0.2	1291105	1291341	BlankScreen	ANTI	73	3	False	red	460	[405 885 405 675]	[1035 1515  405  675]
495.943	1.0	1291341	1292341	ELCue	ANTI	73	3	False	red	460	[405 885 405 675]	[1035 1515  405  675]
497.369	2.0	1292767	1294792	ShowFixation	ANTI	74	3	False	red	180	[1035 1515  405  675]	[405 885 405 675]
499.394	0.2	1294792	1295028	BlankScreen	ANTI	74	3	False	red	180	[1035 1515  405  675]	[405 885 405 675]
499.63	1.0	1295028	1296028	ELCue	ANTI	74	3	False	red	180	[1035 1515  405  675]	[405 885 405 675]
501.034	2.0	1296432	1298462	ShowFixation	VGS	75	3	False	lime	40	[ 90 570 405 675]	[1350 1830  405  675]
503.064	0.2	1298462	1298698	BlankScreen	VGS	75	3	False	lime	40	[ 90 570 405 675]	[1350 1830  405  675]
503.3	1.0	1298698	1299698	ELCue	VGS	75	3	False	lime	40	[ 90 570 405 675]	[1350 1830  405  675]
504.72	2.0	1300118	1302149	ShowFixation	ANTI	76	3	False	red	600	[ 90 570 405 675]	[1350 1830  405  675]
506.751	0.2	1302149	1302385	BlankScreen	ANTI	76	3	False	red	600	[ 90 570 405 675]	[1350 1830  405  675]
506.987	1.0	1302385	1303385	ELCue	ANTI	76	3	False	red	600	[ 90 570 405 675]	[1350 1830  405  675]
508.405	2.0	1303803	1305836	ShowFixation	ANTI	77	3	False	red	460	[405 885 405 675]	[1035 1515  405  675]
510.438	0.2	1305836	1306072	BlankScreen	ANTI	77	3	False	red	460	[405 885 405 675]	[1035 1515  405  675]
510.674	1.0	1306072	1307072	ELCue	ANTI	77	3	False	red	460	[405 885 405 675]	[1035 1515  405  675]
512.096	6.0	1307494	1313523	ShowFixation	VGS	78	3	False	lime	180	[405 885 405 675]	[1035 1515  405  675]
518.125	0.2	1313523	1313763	BlankScreen	VGS	78	3	False	lime	180	[405 885 405 675]	[1035 1515  405  675]
518.365	1.0	1313763	1314763	ELCue	VGS	78	3	False	lime	180	[405 885 405 675]	[1035 1515  405  675]
519.765	6.0	1315163	1321198	ShowFixation	VGS	79	3	False	lime	600	[1350 1830  405  675]	[ 90 570 405 675]
525.8	0.2	1321198	1321437	BlankScreen	VGS	79	3	False	lime	600	[1350 1830  405  675]	[ 90 570 405 675]
526.04	1.0	1321438	1322438	ELCue	VGS	79	3	False	lime	600	[1350 1830  405  675]	[ 90 570 405 675]
527.458	2.0	1322856	1324889	ShowFixation	VGS	80	3	False	lime	180	[405 885 405 675]	[1035 1515  405  675]
529.491	0.2	1324889	1325124	BlankScreen	VGS	80	3	False	lime	180	[405 885 405 675]	[1035 1515  405  675]
529.726	1.0	1325124	1326124	ELCue	VGS	80	3	False	lime	180	[405 885 405 675]	[1035 1515  405  675]
570.056	2.0	1365454	1367482	ShowFixation	ANTI	81	4	False	red	40	[1350 1830  405  675]	[ 90 570 405 675]
572.084	0.2	1367482	1367717	BlankScreen	ANTI	81	4	False	red	40	[1350 1830  405  675]	[ 90 570 405 675]
572.319	1.0	1367717	1368717	ELCue	ANTI	81	4	False	red	40	[1350 1830  405  675]	[ 90 570 405 675]
573.744	6.0	1369142	1375168	ShowFixation	ANTI	82	4	False	red	180	[1035 1515  405  675]	[405 885 405 675]
579.77	0.2	1375168	1375408	BlankScreen	ANTI	82	4	False	red	180	[1035 1515  405  675]	[405 885 405 675]
580.01	1.0	1375408	1376408	ELCue	ANTI	82	4	False	red	180	[1035 1515  405  675]	[405 885 405 675]
581.438	6.0	1376836	1382876	ShowFixation	ANTI	83	4	False	red	180	[1035 1515  405  675]	[405 885 405 675]
587.478	0.2	1382876	1383115	BlankScreen	ANTI	83	4	False	red	180	[1035 1515  405  675]	[405 885 405 675]
587.717	1.0	1383115	1384115	ELCue	ANTI	83	4	False	red	180	[1035 1515  405  675]	[405 885 405 675]
589.14	2.0	1384538	1386567	ShowFixation	ANTI	84	4	False	red	40	[1350 1830  405  675]	[ 90 570 405 675]
591.169	0.2	1386567	1386802	BlankScreen	ANTI	84	4	False	red	40	[1350 1830  405  675]	[ 90 570 405 675]
591.404	1.0	1386802	1387802	ELCue	ANTI	84	4	False	red	40	[1350 1830  405  675]	[ 90 570 405 675]
592.824	2.0	1388222	1390254	ShowFixation	ANTI	85	4	False	red	600	[ 90 570 405 675]	[1350 1830  405  675]
594.856	0.2	1390254	1390489	BlankScreen	ANTI	85	4	False	red	600	[ 90 570 405 675]	[1350 1830  405  675]
595.091	1.0	1390489	1391489	ELCue	ANTI	85	4	False	red	600	[ 90 570 405 675]	[1350 1830  405  675]
596.514	2.0	1391912	1393941	ShowFixation	VGS	86	4	False	lime	40	[ 90 570 405 675]	[1350 1830  405  675]
598.543	0.2	1393941	1394176	BlankScreen	VGS	86	4	False	lime	40	[ 90 570 405 675]	[1350 1830  405  675]
598.778	1.0	1394176	1395176	ELCue	VGS	86	4	False	lime	40	[ 90 570 405 675]	[1350 1830  405  675]
600.2	2.0	1395598	1397628	ShowFixation	VGS	87	4	False	lime	180	[405 885 405 675]	[1035 1515  405  675]
602.23	0.2	1397628	1397863	BlankScreen	VGS	87	4	False	lime	180	[405 885 405 675]	[1035 1515  405  675]
602.465	1.0	1397863	1398863	ELCue	VGS	87	4	False	lime	180	[405 885 405 675]	[1035 1515  405  675]
603.887	6.0	1399285	1405315	ShowFixation	ANTI	88	4	False	red	600	[ 90 570 405 675]	[1350 1830  405  675]
609.917	0.2	1405315	1405554	BlankScreen	ANTI	88	4	False	red	600	[ 90 570 405 675]	[1350 1830  405  675]
610.156	1.0	1405554	1406554	ELCue	ANTI	88	4	False	red	600	[ 90 570 405 675]	[1350 1830  405  675]
611.577	2.0	1406975	1409006	ShowFixation	ANTI	89	4	False	red	460	[405 885 405 675]	[1035 1515  405  675]
613.608	0.2	1409006	1409241	BlankScreen	ANTI	89	4	False	red	460	[405 885 405 675]	[1035 1515  405  675]
613.843	1.0	1409241	1410241	ELCue	ANTI	89	4	False	red	460	[405 885 405 675]	[1035 1515  405  675]
615.268	6.0	1410666	1416693	ShowFixation	VGS	90	4	False	lime	600	[1350 1830  405  675]	[ 90 570 405 675]
621.295	0.2	1416693	1416932	BlankScreen	VGS	90	4	False	lime	600	[1350 1830  405  675]	[ 90 570 405 675]
621.534	1.0	1416932	1417932	ELCue	VGS	90	4	False	lime	600	[1350 1830  405  675]	[ 90 570 405 675]
622.954	6.0	1418352	1424384	ShowFixation	ANTI	91	4	False	red	460	[405 885 405 675]	[1035 1515  405  675]
628.986	0.2	1424384	1424623	BlankScreen	ANTI	91	4	False	red	460	[405 885 405 675]	[1035 1515  405  675]
629.225	1.0	1424623	1425623	ELCue	ANTI	91	4	False	red	460	[405 885 405 675]	[1035 1515  405  675]
630.651	2.0	1426049	1428075	ShowFixation	VGS	92	4	False	lime	600	[1350 1830  405  675]	[ 90 570 405 675]
632.677	0.2	1428075	1428310	BlankScreen	VGS	92	4	False	lime	600	[1350 1830  405  675]	[ 90 570 405 675]
632.912	1.0	1428310	1429310	ELCue	VGS	92	4	False	lime	600	[1350 1830  405  675]	[ 90 570 405 675]
634.302	2.0	1429700	1431728	ShowFixation	VGS	93	4	False	lime	460	[1035 1515  405  675]	[405 885 405 675]
636.33	0.2	1431728	1431964	BlankScreen	VGS	93	4	False	lime	460	[1035 1515  405  675]	[405 885 405 675]
636.566	1.0	1431964	1432964	ELCue	VGS	93	4	False	lime	460	[1035 1515  405  675]	[405 885 405 675]
637.986	6.0	1433384	1439415	ShowFixation	ANTI	94	4	False	red	460	[405 885 405 675]	[1035 1515  405  675]
644.017	0.2	1439415	1439655	BlankScreen	ANTI	94	4	False	red	460	[405 885 405 675]	[1035 1515  405  675]
644.257	1.0	1439655	1440655	ELCue	ANTI	94	4	False	red	460	[405 885 405 675]	[1035 1515  405  675]
645.683	2.0	1441081	1443106	ShowFixation	VGS	95	4	False	lime	600	[1350 1830  405  675]	[ 90 570 405 675]
647.708	0.2	1443106	1443341	BlankScreen	VGS	95	4	False	lime	600	[1350 1830  405  675]	[ 90 570 405 675]
647.943	1.0	1443341	1444341	ELCue	VGS	95	4	False	lime	600	[1350 1830  405  675]	[ 90 570 405 675]
649.366	2.0	1444764	1446793	ShowFixation	VGS	96	4	False	lime	460	[1035 1515  405  675]	[405 885 405 675]
651.395	0.2	1446793	1447028	BlankScreen	VGS	96	4	False	lime	460	[1035 1515  405  675]	[405 885 405 675]
651.63	1.0	1447028	1448028	ELCue	VGS	96	4	False	lime	460	[1035 1515  405  675]	[405 885 405 675]
653.054	6.0	1448452	1454480	ShowFixation	ANTI	97	4	False	red	40	[1350 1830  405  675]	[ 90 570 405 675]
659.082	0.2	1454480	1454719	BlankScreen	ANTI	97	4	False	red	40	[1350 1830  405  675]	[ 90 570 405 675]
659.321	1.0	1454719	1455719	ELCue	ANTI	97	4	False	red	40	[1350 1830  405  675]	[ 90 570 405 675]
660.743	6.0	1456141	1462172	ShowFixation	VGS	98	4	False	lime	40	[ 90 570 405 675]	[1350 1830  405  675]
666.774	0.2	1462172	1462410	BlankScreen	VGS	98	4	False	lime	40	[ 90 570 405 675]	[1350 1830  405  675]
667.013	1.0	1462411	1463411	ELCue	VGS	98	4	False	lime	40	[ 90 570 405 675]	[1350 1830  405  675]
668.432	2.0	1463830	1465863	ShowFixation	ANTI	99	4	False	red	180	[1035 1515  405  675]	[405 885 405 675]
670.465	0.2	1465863	1466098	BlankScreen	ANTI	99	4	False	red	180	[1035 1515  405  675]	[405 885 405 675]
670.7	1.0	1466098	1467098	ELCue	ANTI	99	4	False	red	180	[1035 1515  405  675]	[405 885 405 675]
672.126	6.0	1467524	1473550	ShowFixation	VGS	100	4	False	lime	600	[1350 1830  405  675]	[ 90 570 405 675]
678.152	0.2	1473550	1473789	BlankScreen	VGS	100	4	False	lime	600	[1350 1830  405  675]	[ 90 570 405 675]
678.391	1.0	1473789	1474789	ELCue	VGS	100	4	False	lime	600	[1350 1830  405  675]	[ 90 570 405 675]
679.814	2.0	1475212	1477241	ShowFixation	VGS	101	4	False	lime	180	[405 885 405 675]	[1035 1515  405  675]
681.843	0.2	1477241	1477476	BlankScreen	VGS	101	4	False	lime	180	[405 885 405 675]	[1035 1515  405  675]
682.078	1.0	1477476	1478476	ELCue	VGS	101	4	False	lime	180	[405 885 405 675]	[1035 1515  405  675]
683.498	6.0	1478896	1484928	ShowFixation	VGS	102	4	False	lime	180	[405 885 405 675]	[1035 1515  405  675]
689.53	0.2	1484928	1485167	BlankScreen	VGS	102	4	False	lime	180	[405 885 405 675]	[1035 1515  405  675]
689.769	1.0	1485167	1486167	ELCue	VGS	102	4	False	lime	180	[405 885 405 675]	[1035 1515  405  675]
691.19	6.0	1486588	1492619	ShowFixation	VGS	103	4	False	lime	180	[405 885 405 675]	[1035 1515  405  675]
697.221	0.2	1492619	1492858	BlankScreen	VGS	103	4	False	lime	180	[405 885 405 675]	[1035 1515  405  675]
697.46	1.0	1492858	1493858	ELCue	VGS	103	4	False	lime	180	[405 885 405 675]	[1035 1515  405  675]
698.938	6.0	1494336	1500376	ShowFixation	VGS	104	4	False	lime	40	[ 90 570 405 675]	[1350 1830  405  675]
704.978	0.2	1500376	1500616	BlankScreen	VGS	104	4	False	lime	40	[ 90 570 405 675]	[1350 1830  405  675]
705.218	1.0	1500616	1501616	ELCue	VGS	104	4	False	lime	40	[ 90 570 405 675]	[1350 1830  405  675]
706.642	6.0	1502040	1508067	ShowFixation	VGS	105	4	False	lime	460	[1035 1515  405  675]	[405 885 405 675]
712.669	0.2	1508067	1508307	BlankScreen	VGS	105	4	False	lime	460	[1035 1515  405  675]	[405 885 405 675]
712.909	1.0	1508307	1509307	ELCue	VGS	105	4	False	lime	460	[1035 1515  405  675]	[405 885 405 675]
714.336	6.0	1509734	1515775	ShowFixation	VGS	106	4	False	lime	460	[1035 1515  405  675]	[405 885 405 675]
720.377	0.2	1515775	1516014	BlankScreen	VGS	106	4	False	lime	460	[1035 1515  405  675]	[405 885 405 675]
720.616	1.0	1516014	1517014	ELCue	VGS	106	4	False	lime	460	[1035 1515  405  675]	[405 885 405 675]
722.04	6.0	1517438	1523466	ShowFixation	ANTI	107	4	False	red	600	[ 90 570 405 675]	[1350 1830  405  675]
728.068	0.2	1523466	1523705	BlankScreen	ANTI	107	4	False	red	600	[ 90 570 405 675]	[1350 1830  405  675]
728.307	1.0	1523705	1524705	ELCue	ANTI	107	4	False	red	600	[ 90 570 405 675]	[1350 1830  405  675]
729.727	6.0	1525125	1531157	ShowFixation	ANTI	108	4	False	red	40	[1350 1830  405  675]	[ 90 570 405 675]
735.759	0.2	1531157	1531396	BlankScreen	ANTI	108	4	False	red	40	[1350 1830  405  675]	[ 90 570 405 675]
735.998	1.0	1531396	1532396	ELCue	ANTI	108	4	False	red	40	[1350 1830  405  675]	[ 90 570 405 675]
737.422	2.0	1532820	1534848	ShowFixation	ANTI	109	4	False	red	460	[405 885 405 675]	[1035 1515  405  675]
739.45	0.2	1534848	1535083	BlankScreen	ANTI	109	4	False	red	460	[405 885 405 675]	[1035 1515  405  675]
739.685	1.0	1535083	1536083	ELCue	ANTI	109	4	False	red	460	[405 885 405 675]	[1035 1515  405  675]
741.113	2.0	1536511	1538551	ShowFixation	VGS	110	4	False	lime	40	[ 90 570 405 675]	[1350 1830  405  675]
743.153	0.2	1538551	1538787	BlankScreen	VGS	110	4	False	lime	40	[ 90 570 405 675]	[1350 1830  405  675]
743.389	1.0	1538787	1539787	ELCue	VGS	110	4	False	lime	40	[ 90 570 405 675]	[1350 1830  405  675]
744.813	2.0	1540211	1542238	ShowFixation	ANTI	111	4	False	red	600	[ 90 570 405 675]	[1350 1830  405  675]
746.84	0.2	1542238	1542474	BlankScreen	ANTI	111	4	False	red	600	[ 90 570 405 675]	[1350 1830  405  675]
747.076	1.0	1542474	1543474	ELCue	ANTI	111	4	False	red	600	[ 90 570 405 675]	[1350 1830  405  675]
748.496	2.0	1543894	1545925	ShowFixation	ANTI	112	4	False	red	180	[1035 1515  405  675]	[405 885 405 675]
750.527	0.2	1545925	1546161	BlankScreen	ANTI	112	4	False	red	180	[1035 1515  405  675]	[405 885 405 675]
750.763	1.0	1546161	1547161	ELCue	ANTI	112	4	False	red	180	[1035 1515  405  675]	[405 885 405 675]
