onset	duration	startTime	stopTime	eventIdentifier	trial_type	trial_number	block_number	is_practice	fixation_color	cue_side	aoi_correct	aoi_incorrect
0.151	6.0	5954965	5960990	ShowFixation	VGS	1	1	True	lime	460	[1035 1515  405  675]	[405 885 405 675]
6.176	0.2	5960990	5961230	BlankScreen	VGS	1	1	True	lime	460	[1035 1515  405  675]	[405 885 405 675]
6.416	1.0	5961230	5962270	ELCue	VGS	1	1	True	lime	460	[1035 1515  405  675]	[405 885 405 675]
7.876	2.0	5962690	5965315	ShowFixation	ANTI	2	1	True	red	460	[405 885 405 675]	[1035 1515  405  675]
10.501	0.2	5965315	5965551	BlankScreen	ANTI	2	1	True	red	460	[405 885 405 675]	[1035 1515  405  675]
10.737	1.0	5965551	5966589	ELCue	ANTI	2	1	True	red	460	[405 885 405 675]	[1035 1515  405  675]
12.182	2.0	5966996	5969620	ShowFixation	ANTI	3	1	True	red	40	[1350 1830  405  675]	[ 90 570 405 675]
14.806	0.2	5969620	5969855	BlankScreen	ANTI	3	1	True	red	40	[1350 1830  405  675]	[ 90 570 405 675]
15.041	1.0	5969855	5970895	ELCue	ANTI	3	1	True	red	40	[1350 1830  405  675]	[ 90 570 405 675]
16.498	6.0	5971312	5977924	ShowFixation	VGS	4	1	True	lime	40	[ 90 570 405 675]	[1350 1830  405  675]
23.11	0.2	5977924	5978163	BlankScreen	VGS	4	1	True	lime	40	[ 90 570 405 675]	[1350 1830  405  675]
23.349	1.0	5978163	5979204	ELCue	VGS	4	1	True	lime	40	[ 90 570 405 675]	[1350 1830  405  675]
24.811	2.0	5979625	5982249	ShowFixation	VGS	5	1	True	lime	40	[ 90 570 405 675]	[1350 1830  405  675]
27.435	0.2	5982249	5982484	BlankScreen	VGS	5	1	True	lime	40	[ 90 570 405 675]	[1350 1830  405  675]
27.67	1.0	5982484	5983524	ELCue	VGS	5	1	True	lime	40	[ 90 570 405 675]	[1350 1830  405  675]
29.129	6.0	5983943	5990553	ShowFixation	ANTI	6	1	True	red	40	[1350 1830  405  675]	[ 90 570 405 675]
35.739	0.2	5990553	5990792	BlankScreen	ANTI	6	1	True	red	40	[1350 1830  405  675]	[ 90 570 405 675]
35.978	1.0	5990792	5991833	ELCue	ANTI	6	1	True	red	40	[1350 1830  405  675]	[ 90 570 405 675]
37.441	2.0	5992255	5994878	ShowFixation	VGS	7	1	True	lime	600	[1350 1830  405  675]	[ 90 570 405 675]
40.064	0.2	5994878	5995113	BlankScreen	VGS	7	1	True	lime	600	[1350 1830  405  675]	[ 90 570 405 675]
40.299	1.0	5995113	5996154	ELCue	VGS	7	1	True	lime	600	[1350 1830  405  675]	[ 90 570 405 675]
41.761	6.0	5996575	6003182	ShowFixation	ANTI	8	1	True	red	180	[1035 1515  405  675]	[405 885 405 675]
48.369	0.2	6003183	6003421	BlankScreen	ANTI	8	1	True	red	180	[1035 1515  405  675]	[405 885 405 675]
48.607	1.0	6003421	6004462	ELCue	ANTI	8	1	True	red	180	[1035 1515  405  675]	[405 885 405 675]
50.07	6.0	6004884	6011508	ShowFixation	VGS	9	1	True	lime	180	[405 885 405 675]	[1035 1515  405  675]
56.694	0.2	6011508	6011747	BlankScreen	VGS	9	1	True	lime	180	[405 885 405 675]	[1035 1515  405  675]
56.933	1.0	6011747	6012787	ELCue	VGS	9	1	True	lime	180	[405 885 405 675]	[1035 1515  405  675]
58.391	6.0	6013205	6019833	ShowFixation	ANTI	10	1	True	red	460	[405 885 405 675]	[1035 1515  405  675]
65.019	0.2	6019833	6020072	BlankScreen	ANTI	10	1	True	red	460	[405 885 405 675]	[1035 1515  405  675]
65.258	1.0	6020072	6021112	ELCue	ANTI	10	1	True	red	460	[405 885 405 675]	[1035 1515  405  675]
66.714	2.0	6021528	6024158	ShowFixation	VGS	11	1	True	lime	180	[405 885 405 675]	[1035 1515  405  675]
69.344	0.2	6024158	6024393	BlankScreen	VGS	11	1	True	lime	180	[405 885 405 675]	[1035 1515  405  675]
69.579	1.0	6024393	6025433	ELCue	VGS	11	1	True	lime	180	[405 885 405 675]	[1035 1515  405  675]
71.039	2.0	6025853	6028479	ShowFixation	VGS	12	1	True	lime	460	[1035 1515  405  675]	[405 885 405 675]
73.665	0.2	6028479	6028714	BlankScreen	VGS	12	1	True	lime	460	[1035 1515  405  675]	[405 885 405 675]
73.9	1.0	6028714	6029754	ELCue	VGS	12	1	True	lime	460	[1035 1515  405  675]	[405 885 405 675]
75.354	6.0	6030168	6036799	ShowFixation	VGS	13	1	True	lime	600	[1350 1830  405  675]	[ 90 570 405 675]
81.985	0.2	6036799	6037039	BlankScreen	VGS	13	1	True	lime	600	[1350 1830  405  675]	[ 90 570 405 675]
82.225	1.0	6037039	6038079	ELCue	VGS	13	1	True	lime	600	[1350 1830  405  675]	[ 90 570 405 675]
83.684	6.0	6038498	6045108	ShowFixation	ANTI	14	1	True	red	600	[ 90 570 405 675]	[1350 1830  405  675]
90.294	0.2	6045108	6045347	BlankScreen	ANTI	14	1	True	red	600	[ 90 570 405 675]	[1350 1830  405  675]
90.533	1.0	6045347	6046387	ELCue	ANTI	14	1	True	red	600	[ 90 570 405 675]	[1350 1830  405  675]
91.989	2.0	6046803	6049433	ShowFixation	ANTI	15	1	True	red	180	[1035 1515  405  675]	[405 885 405 675]
94.619	0.2	6049433	6049668	BlankScreen	ANTI	15	1	True	red	180	[1035 1515  405  675]	[405 885 405 675]
94.854	1.0	6049668	6050708	ELCue	ANTI	15	1	True	red	180	[1035 1515  405  675]	[405 885 405 675]
96.312	2.0	6051126	6053753	ShowFixation	ANTI	16	1	True	red	600	[ 90 570 405 675]	[1350 1830  405  675]
98.939	0.2	6053753	6053989	BlankScreen	ANTI	16	1	True	red	600	[ 90 570 405 675]	[1350 1830  405  675]
99.175	1.0	6053989	6055029	ELCue	ANTI	16	1	True	red	600	[ 90 570 405 675]	[1350 1830  405  675]
124.946	6.0	6079760	6085798	ShowFixation	ANTI	17	2	False	red	460	[405 885 405 675]	[1035 1515  405  675]
130.984	0.2	6085798	6086037	BlankScreen	ANTI	17	2	False	red	460	[405 885 405 675]	[1035 1515  405  675]
131.223	1.0	6086037	6087037	ELCue	ANTI	17	2	False	red	460	[405 885 405 675]	[1035 1515  405  675]
132.628	2.0	6087442	6089472	ShowFixation	ANTI	18	2	False	red	180	[1035 1515  405  675]	[405 885 405 675]
134.658	0.2	6089472	6089707	BlankScreen	ANTI	18	2	False	red	180	[1035 1515  405  675]	[405 885 405 675]
134.893	1.0	6089707	6090707	ELCue	ANTI	18	2	False	red	180	[1035 1515  405  675]	[405 885 405 675]
136.316	6.0	6091130	6097159	ShowFixation	VGS	19	2	False	lime	40	[ 90 570 405 675]	[1350 1830  405  675]
142.345	0.2	6097159	6097398	BlankScreen	VGS	19	2	False	lime	40	[ 90 570 405 675]	[1350 1830  405  675]
142.584	1.0	6097398	6098398	ELCue	VGS	19	2	False	lime	40	[ 90 570 405 675]	[1350 1830  405  675]
144.01	6.0	6098824	6104850	ShowFixation	ANTI	20	2	False	red	180	[1035 1515  405  675]	[405 885 405 675]
150.036	0.2	6104850	6105089	BlankScreen	ANTI	20	2	False	red	180	[1035 1515  405  675]	[405 885 405 675]
150.275	1.0	6105089	6106089	ELCue	ANTI	20	2	False	red	180	[1035 1515  405  675]	[405 885 405 675]
151.7	6.0	6106514	6112541	ShowFixation	ANTI	21	2	False	red	460	[405 885 405 675]	[1035 1515  405  675]
157.727	0.2	6112541	6112780	BlankScreen	ANTI	21	2	False	red	460	[405 885 405 675]	[1035 1515  405  675]
157.966	1.0	6112780	6113780	ELCue	ANTI	21	2	False	red	460	[405 885 405 675]	[1035 1515  405  675]
159.391	6.0	6114205	6120232	ShowFixation	VGS	22	2	False	lime	40	[ 90 570 405 675]	[1350 1830  405  675]
165.418	0.2	6120232	6120471	BlankScreen	VGS	22	2	False	lime	40	[ 90 570 405 675]	[1350 1830  405  675]
165.657	1.0	6120471	6121471	ELCue	VGS	22	2	False	lime	40	[ 90 570 405 675]	[1350 1830  405  675]
167.081	2.0	6121895	6123923	ShowFixation	VGS	23	2	False	lime	40	[ 90 570 405 675]	[1350 1830  405  675]
169.109	0.2	6123923	6124158	BlankScreen	VGS	23	2	False	lime	40	[ 90 570 405 675]	[1350 1830  405  675]
169.344	1.0	6124158	6125158	ELCue	VGS	23	2	False	lime	40	[ 90 570 405 675]	[1350 1830  405  675]
170.767	6.0	6125581	6131610	ShowFixation	ANTI	24	2	False	red	600	[ 90 570 405 675]	[1350 1830  405  675]
176.796	0.2	6131610	6131849	BlankScreen	ANTI	24	2	False	red	600	[ 90 570 405 675]	[1350 1830  405  675]
177.035	1.0	6131849	6132849	ELCue	ANTI	24	2	False	red	600	[ 90 570 405 675]	[1350 1830  405  675]
178.456	6.0	6133270	6139301	ShowFixation	VGS	25	2	False	lime	460	[1035 1515  405  675]	[405 885 405 675]
184.487	0.2	6139301	6139540	BlankScreen	VGS	25	2	False	lime	460	[1035 1515  405  675]	[405 885 405 675]
184.726	1.0	6139540	6140540	ELCue	VGS	25	2	False	lime	460	[1035 1515  405  675]	[405 885 405 675]
186.148	2.0	6140962	6142992	ShowFixation	VGS	26	2	False	lime	40	[ 90 570 405 675]	[1350 1830  405  675]
188.178	0.2	6142992	6143227	BlankScreen	VGS	26	2	False	lime	40	[ 90 570 405 675]	[1350 1830  405  675]
188.414	1.0	6143228	6144228	ELCue	VGS	26	2	False	lime	40	[ 90 570 405 675]	[1350 1830  405  675]
189.838	2.0	6144652	6146678	ShowFixation	ANTI	27	2	False	red	600	[ 90 570 405 675]	[1350 1830  405  675]
191.864	0.2	6146678	6146914	BlankScreen	ANTI	27	2	False	red	600	[ 90 570 405 675]	[1350 1830  405  675]
192.1	1.0	6146914	6147914	ELCue	ANTI	27	2	False	red	600	[ 90 570 405 675]	[1350 1830  405  675]
193.525	2.0	6148339	6150366	ShowFixation	ANTI	28	2	False	red	460	[405 885 405 675]	[1035 1515  405  675]
195.552	0.2	6150366	6150602	BlankScreen	ANTI	28	2	False	red	460	[405 885 405 675]	[1035 1515  405  675]
195.788	1.0	6150602	6151602	ELCue	ANTI	28	2	False	red	460	[405 885 405 675]	[1035 1515  405  675]
197.208	6.0	6152022	6158053	ShowFixation	ANTI	29	2	False	red	600	[ 90 570 405 675]	[1350 1830  405  675]
203.239	0.2	6158053	6158293	BlankScreen	ANTI	29	2	False	red	600	[ 90 570 405 675]	[1350 1830  405  675]
203.479	1.0	6158293	6159293	ELCue	ANTI	29	2	False	red	600	[ 90 570 405 675]	[1350 1830  405  675]
204.897	2.0	6159711	6161744	ShowFixation	ANTI	30	2	False	red	600	[ 90 570 405 675]	[1350 1830  405  675]
206.93	0.2	6161744	6161980	BlankScreen	ANTI	30	2	False	red	600	[ 90 570 405 675]	[1350 1830  405  675]
207.166	1.0	6161980	6162980	ELCue	ANTI	30	2	False	red	600	[ 90 570 405 675]	[1350 1830  405  675]
208.588	6.0	6163402	6169431	ShowFixation	VGS	31	2	False	lime	600	[1350 1830  405  675]	[ 90 570 405 675]
214.617	0.2	6169431	6169671	BlankScreen	VGS	31	2	False	lime	600	[1350 1830  405  675]	[ 90 570 405 675]
214.857	1.0	6169671	6170671	ELCue	VGS	31	2	False	lime	600	[1350 1830  405  675]	[ 90 570 405 675]
216.278	6.0	6171092	6177122	ShowFixation	ANTI	32	2	False	red	180	[1035 1515  405  675]	[405 885 405 675]
222.308	0.2	6177122	6177362	BlankScreen	ANTI	32	2	False	red	180	[1035 1515  405  675]	[405 885 405 675]
222.548	1.0	6177362	6178362	ELCue	ANTI	32	2	False	red	180	[1035 1515  405  675]	[405 885 405 675]
223.972	6.0	6178786	6184813	ShowFixation	VGS	33	2	False	lime	460	[1035 1515  405  675]	[405 885 405 675]
229.999	0.2	6184813	6185052	BlankScreen	VGS	33	2	False	lime	460	[1035 1515  405  675]	[405 885 405 675]
230.238	1.0	6185052	6186052	ELCue	VGS	33	2	False	lime	460	[1035 1515  405  675]	[405 885 405 675]
231.664	2.0	6186478	6188504	ShowFixation	ANTI	34	2	False	red	40	[1350 1830  405  675]	[ 90 570 405 675]
233.69	0.2	6188504	6188739	BlankScreen	ANTI	34	2	False	red	40	[1350 1830  405  675]	[ 90 570 405 675]
233.925	1.0	6188739	6189739	ELCue	ANTI	34	2	False	red	40	[1350 1830  405  675]	[ 90 570 405 675]
235.332	2.0	6190146	6192174	ShowFixation	VGS	35	2	False	lime	180	[405 885 405 675]	[1035 1515  405  675]
237.36	0.2	6192174	6192410	BlankScreen	VGS	35	2	False	lime	180	[405 885 405 675]	[1035 1515  405  675]
237.596	1.0	6192410	6193410	ELCue	VGS	35	2	False	lime	180	[405 885 405 675]	[1035 1515  405  675]
239.021	2.0	6193835	6195861	ShowFixation	ANTI	36	2	False	red	180	[1035 1515  405  675]	[405 885 405 675]
241.047	0.2	6195861	6196097	BlankScreen	ANTI	36	2	False	red	180	[1035 1515  405  675]	[405 885 405 675]
241.283	1.0	6196097	6197097	ELCue	ANTI	36	2	False	red	180	[1035 1515  405  675]	[405 885 405 675]
242.704	6.0	6197518	6203548	ShowFixation	VGS	37	2	False	lime	180	[405 885 405 675]	[1035 1515  405  675]
248.734	0.2	6203548	6203788	BlankScreen	VGS	37	2	False	lime	180	[405 885 405 675]	[1035 1515  405  675]
248.974	1.0	6203788	6204788	ELCue	VGS	37	2	False	lime	180	[405 885 405 675]	[1035 1515  405  675]
250.394	2.0	6205208	6207239	ShowFixation	ANTI	38	2	False	red	460	[405 885 405 675]	[1035 1515  405  675]
252.425	0.2	6207239	6207475	BlankScreen	ANTI	38	2	False	red	460	[405 885 405 675]	[1035 1515  405  675]
252.661	1.0	6207475	6208475	ELCue	ANTI	38	2	False	red	460	[405 885 405 675]	[1035 1515  405  675]
254.083	2.0	6208897	6210926	ShowFixation	VGS	39	2	False	lime	460	[1035 1515  405  675]	[405 885 405 675]
256.112	0.2	6210926	6211162	BlankScreen	VGS	39	2	False	lime	460	[1035 1515  405  675]	[405 885 405 675]
256.348	1.0	6211162	6212162	ELCue	VGS	39	2	False	lime	460	[1035 1515  405  675]	[405 885 405 675]
257.772	2.0	6212586	6214613	ShowFixation	VGS	40	2	False	lime	600	[1350 1830  405  675]	[ 90 570 405 675]
259.799	0.2	6214613	6214848	BlankScreen	VGS	40	2	False	lime	600	[1350 1830  405  675]	[ 90 570 405 675]
260.034	1.0	6214848	6215848	ELCue	VGS	40	2	False	lime	600	[1350 1830  405  675]	[ 90 570 405 675]
261.458	6.0	6216272	6222300	ShowFixation	VGS	41	2	False	lime	600	[1350 1830  405  675]	[ 90 570 405 675]
267.486	0.2	6222300	6222539	BlankScreen	VGS	41	2	False	lime	600	[1350 1830  405  675]	[ 90 570 405 675]
267.725	1.0	6222539	6223539	ELCue	VGS	41	2	False	lime	600	[1350 1830  405  675]	[ 90 570 405 675]
269.145	2.0	6223959	6225991	ShowFixation	VGS	42	2	False	lime	600	[1350 1830  405  675]	[ 90 570 405 675]
271.177	0.2	6225991	6226226	BlankScreen	VGS	42	2	False	lime	600	[1350 1830  405  675]	[ 90 570 405 675]
271.412	1.0	6226226	6227226	ELCue	VGS	42	2	False	lime	600	[1350 1830  405  675]	[ 90 570 405 675]
272.835	2.0	6227649	6229678	ShowFixation	VGS	43	2	False	lime	180	[405 885 405 675]	[1035 1515  405  675]
274.865	0.2	6229679	6229913	BlankScreen	VGS	43	2	False	lime	180	[405 885 405 675]	[1035 1515  405  675]
275.099	1.0	6229913	6230913	ELCue	VGS	43	2	False	lime	180	[405 885 405 675]	[1035 1515  405  675]
276.522	2.0	6231336	6233365	ShowFixation	ANTI	44	2	False	red	40	[1350 1830  405  675]	[ 90 570 405 675]
278.551	0.2	6233365	6233600	BlankScreen	ANTI	44	2	False	red	40	[1350 1830  405  675]	[ 90 570 405 675]
278.786	1.0	6233600	6234600	ELCue	ANTI	44	2	False	red	40	[1350 1830  405  675]	[ 90 570 405 675]
280.21	6.0	6235024	6241052	ShowFixation	VGS	45	2	False	lime	180	[405 885 405 675]	[1035 1515  405  675]
286.238	0.2	6241052	6241291	BlankScreen	VGS	45	2	False	lime	180	[405 885 405 675]	[1035 1515  405  675]
286.477	1.0	6241291	6242291	ELCue	VGS	45	2	False	lime	180	[405 885 405 675]	[1035 1515  405  675]
287.899	6.0	6242713	6248743	ShowFixation	ANTI	46	2	False	red	40	[1350 1830  405  675]	[ 90 570 405 675]
293.929	0.2	6248743	6248982	BlankScreen	ANTI	46	2	False	red	40	[1350 1830  405  675]	[ 90 570 405 675]
294.168	1.0	6248982	6249982	ELCue	ANTI	46	2	False	red	40	[1350 1830  405  675]	[ 90 570 405 675]
295.586	6.0	6250400	6256434	ShowFixation	ANTI	47	2	False	red	40	[1350 1830  405  675]	[ 90 570 405 675]
301.62	0.2	6256434	6256673	BlankScreen	ANTI	47	2	False	red	40	[1350 1830  405  675]	[ 90 570 405 675]
301.859	1.0	6256673	6257673	ELCue	ANTI	47	2	False	red	40	[1350 1830  405  675]	[ 90 570 405 675]
303.286	2.0	6258100	6260125	ShowFixation	VGS	48	2	False	lime	460	[1035 1515  405  675]	[405 885 405 675]
305.311	0.2	6260125	6260360	BlankScreen	VGS	48	2	False	lime	460	[1035 1515  405  675]	[405 885 405 675]
305.546	1.0	6260360	6261360	ELCue	VGS	48	2	False	lime	460	[1035 1515  405  675]	[405 885 405 675]
338.778	6.0	6293592	6299627	ShowFixation	ANTI	49	3	False	red	40	[1350 1830  405  675]	[ 90 570 405 675]
344.813	0.2	6299627	6299867	BlankScreen	ANTI	49	3	False	red	40	[1350 1830  405  675]	[ 90 570 405 675]
345.053	1.0	6299867	6300867	ELCue	ANTI	49	3	False	red	40	[1350 1830  405  675]	[ 90 570 405 675]
346.477	6.0	6301291	6307318	ShowFixation	VGS	50	3	False	lime	600	[1350 1830  405  675]	[ 90 570 405 675]
352.504	0.2	6307318	6307558	BlankScreen	VGS	50	3	False	lime	600	[1350 1830  405  675]	[ 90 570 405 675]
352.744	1.0	6307558	6308558	ELCue	VGS	50	3	False	lime	600	[1350 1830  405  675]	[ 90 570 405 675]
354.161	2.0	6308975	6311009	ShowFixation	VGS	51	3	False	lime	600	[1350 1830  405  675]	[ 90 570 405 675]
356.195	0.2	6311009	6311245	BlankScreen	VGS	51	3	False	lime	600	[1350 1830  405  675]	[ 90 570 405 675]
356.431	1.0	6311245	6312245	ELCue	VGS	51	3	False	lime	600	[1350 1830  405  675]	[ 90 570 405 675]
357.955	6.0	6312769	6318796	ShowFixation	ANTI	52	3	False	red	180	[1035 1515  405  675]	[405 885 405 675]
363.982	0.2	6318796	6319036	BlankScreen	ANTI	52	3	False	red	180	[1035 1515  405  675]	[405 885 405 675]
364.222	1.0	6319036	6320036	ELCue	ANTI	52	3	False	red	180	[1035 1515  405  675]	[405 885 405 675]
365.646	6.0	6320460	6326487	ShowFixation	VGS	53	3	False	lime	180	[405 885 405 675]	[1035 1515  405  675]
371.673	0.2	6326487	6326727	BlankScreen	VGS	53	3	False	lime	180	[405 885 405 675]	[1035 1515  405  675]
371.913	1.0	6326727	6327727	ELCue	VGS	53	3	False	lime	180	[405 885 405 675]	[1035 1515  405  675]
373.334	6.0	6328148	6334178	ShowFixation	ANTI	54	3	False	red	600	[ 90 570 405 675]	[1350 1830  405  675]
379.364	0.2	6334178	6334417	BlankScreen	ANTI	54	3	False	red	600	[ 90 570 405 675]	[1350 1830  405  675]
379.603	1.0	6334417	6335417	ELCue	ANTI	54	3	False	red	600	[ 90 570 405 675]	[1350 1830  405  675]
381.028	6.0	6335842	6341869	ShowFixation	VGS	55	3	False	lime	40	[ 90 570 405 675]	[1350 1830  405  675]
387.055	0.2	6341869	6342108	BlankScreen	VGS	55	3	False	lime	40	[ 90 570 405 675]	[1350 1830  405  675]
387.294	1.0	6342108	6343108	ELCue	VGS	55	3	False	lime	40	[ 90 570 405 675]	[1350 1830  405  675]
388.718	2.0	6343532	6345560	ShowFixation	ANTI	56	3	False	red	460	[405 885 405 675]	[1035 1515  405  675]
390.746	0.2	6345560	6345795	BlankScreen	ANTI	56	3	False	red	460	[405 885 405 675]	[1035 1515  405  675]
390.981	1.0	6345795	6346795	ELCue	ANTI	56	3	False	red	460	[405 885 405 675]	[1035 1515  405  675]
392.404	6.0	6347218	6353247	ShowFixation	ANTI	57	3	False	red	600	[ 90 570 405 675]	[1350 1830  405  675]
398.433	0.2	6353247	6353486	BlankScreen	ANTI	57	3	False	red	600	[ 90 570 405 675]	[1350 1830  405  675]
398.672	1.0	6353486	6354486	ELCue	ANTI	57	3	False	red	600	[ 90 570 405 675]	[1350 1830  405  675]
400.088	2.0	6354902	6356938	ShowFixation	VGS	58	3	False	lime	40	[ 90 570 405 675]	[1350 1830  405  675]
402.124	0.2	6356938	6357173	BlankScreen	VGS	58	3	False	lime	40	[ 90 570 405 675]	[1350 1830  405  675]
402.359	1.0	6357173	6358173	ELCue	VGS	58	3	False	lime	40	[ 90 570 405 675]	[1350 1830  405  675]
403.782	6.0	6358596	6364625	ShowFixation	ANTI	59	3	False	red	460	[405 885 405 675]	[1035 1515  405  675]
409.811	0.2	6364625	6364864	BlankScreen	ANTI	59	3	False	red	460	[405 885 405 675]	[1035 1515  405  675]
410.05	1.0	6364864	6365864	ELCue	ANTI	59	3	False	red	460	[405 885 405 675]	[1035 1515  405  675]
411.474	2.0	6366288	6368316	ShowFixation	VGS	60	3	False	lime	460	[1035 1515  405  675]	[405 885 405 675]
413.502	0.2	6368316	6368551	BlankScreen	VGS	60	3	False	lime	460	[1035 1515  405  675]	[405 885 405 675]
413.737	1.0	6368551	6369551	ELCue	VGS	60	3	False	lime	460	[1035 1515  405  675]	[405 885 405 675]
415.126	2.0	6369940	6371969	ShowFixation	ANTI	61	3	False	red	460	[405 885 405 675]	[1035 1515  405  675]
417.155	0.2	6371969	6372205	BlankScreen	ANTI	61	3	False	red	460	[405 885 405 675]	[1035 1515  405  675]
417.391	1.0	6372205	6373205	ELCue	ANTI	61	3	False	red	460	[405 885 405 675]	[1035 1515  405  675]
418.816	2.0	6373630	6375656	ShowFixation	ANTI	62	3	False	red	180	[1035 1515  405  675]	[405 885 405 675]
420.842	0.2	6375656	6375892	BlankScreen	ANTI	62	3	False	red	180	[1035 1515  405  675]	[405 885 405 675]
421.078	1.0	6375892	6376892	ELCue	ANTI	62	3	False	red	180	[1035 1515  405  675]	[405 885 405 675]
422.499	6.0	6377313	6383343	ShowFixation	ANTI	63	3	False	red	40	[1350 1830  405  675]	[ 90 570 405 675]
428.529	0.2	6383343	6383583	BlankScreen	ANTI	63	3	False	red	40	[1350 1830  405  675]	[ 90 570 405 675]
428.769	1.0	6383583	6384583	ELCue	ANTI	63	3	False	red	40	[1350 1830  405  675]	[ 90 570 405 675]
430.192	2.0	6385006	6387034	ShowFixation	VGS	64	3	False	lime	180	[405 885 405 675]	[1035 1515  405  675]
432.22	0.2	6387034	6387270	BlankScreen	VGS	64	3	False	lime	180	[405 885 405 675]	[1035 1515  405  675]
432.456	1.0	6387270	6388270	ELCue	VGS	64	3	False	lime	180	[405 885 405 675]	[1035 1515  405  675]
433.878	6.0	6388692	6394721	ShowFixation	VGS	65	3	False	lime	600	[1350 1830  405  675]	[ 90 570 405 675]
439.907	0.2	6394721	6394960	BlankScreen	VGS	65	3	False	lime	600	[1350 1830  405  675]	[ 90 570 405 675]
440.146	1.0	6394960	6395960	ELCue	VGS	65	3	False	lime	600	[1350 1830  405  675]	[ 90 570 405 675]
441.564	6.0	6396378	6402412	ShowFixation	ANTI	66	3	False	red	460	[405 885 405 675]	[1035 1515  405  675]
447.598	0.2	6402412	6402651	BlankScreen	ANTI	66	3	False	red	460	[405 885 405 675]	[1035 1515  405  675]
447.837	1.0	6402651	6403651	ELCue	ANTI	66	3	False	red	460	[405 885 405 675]	[1035 1515  405  675]
449.238	6.0	6404052	6410086	ShowFixation	VGS	67	3	False	lime	460	[1035 1515  405  675]	[405 885 405 675]
455.272	0.2	6410086	6410326	BlankScreen	VGS	67	3	False	lime	460	[1035 1515  405  675]	[405 885 405 675]
455.512	1.0	6410326	6411326	ELCue	VGS	67	3	False	lime	460	[1035 1515  405  675]	[405 885 405 675]
456.932	2.0	6411746	6413777	ShowFixation	ANTI	68	3	False	red	600	[ 90 570 405 675]	[1350 1830  405  675]
458.963	0.2	6413777	6414013	BlankScreen	ANTI	68	3	False	red	600	[ 90 570 405 675]	[1350 1830  405  675]
459.199	1.0	6414013	6415013	ELCue	ANTI	68	3	False	red	600	[ 90 570 405 675]	[1350 1830  405  675]
460.621	2.0	6415435	6417464	ShowFixation	VGS	69	3	False	lime	460	[1035 1515  405  675]	[405 885 405 675]
462.65	0.2	6417464	6417700	BlankScreen	VGS	69	3	False	lime	460	[1035 1515  405  675]	[405 885 405 675]
462.886	1.0	6417700	6418700	ELCue	VGS	69	3	False	lime	460	[1035 1515  405  675]	[405 885 405 675]
464.308	2.0	6419122	6421151	ShowFixation	VGS	70	3	False	lime	180	[405 885 405 675]	[1035 1515  405  675]
466.337	0.2	6421151	6421387	BlankScreen	VGS	70	3	False	lime	180	[405 885 405 675]	[1035 1515  405  675]
466.573	1.0	6421387	6422387	ELCue	VGS	70	3	False	lime	180	[405 885 405 675]	[1035 1515  405  675]
467.995	2.0	6422809	6424838	ShowFixation	ANTI	71	3	False	red	600	[ 90 570 405 675]	[1350 1830  405  675]
470.024	0.2	6424838	6425074	BlankScreen	ANTI	71	3	False	red	600	[ 90 570 405 675]	[1350 1830  405  675]
470.26	1.0	6425074	6426074	ELCue	ANTI	71	3	False	red	600	[ 90 570 405 675]	[1350 1830  405  675]
471.662	2.0	6426476	6428508	ShowFixation	VGS	72	3	False	lime	600	[1350 1830  405  675]	[ 90 570 405 675]
473.694	0.2	6428508	6428744	BlankScreen	VGS	72	3	False	lime	600	[1350 1830  405  675]	[ 90 570 405 675]
473.931	1.0	6428745	6429745	ELCue	VGS	72	3	False	lime	600	[1350 1830  405  675]	[ 90 570 405 675]
475.355	6.0	6430169	6436196	ShowFixation	VGS	73	3	False	lime	40	[ 90 570 405 675]	[1350 1830  405  675]
481.382	0.2	6436196	6436436	BlankScreen	VGS	73	3	False	lime	40	[ 90 570 405 675]	[1350 1830  405  675]
481.622	1.0	6436436	6437436	ELCue	VGS	73	3	False	lime	40	[ 90 570 405 675]	[1350 1830  405  675]
483.051	2.0	6437865	6439904	ShowFixation	ANTI	74	3	False	red	40	[1350 1830  405  675]	[ 90 570 405 675]
485.09	0.2	6439904	6440139	BlankScreen	ANTI	74	3	False	red	40	[1350 1830  405  675]	[ 90 570 405 675]
485.325	1.0	6440139	6441139	ELCue	ANTI	74	3	False	red	40	[1350 1830  405  675]	[ 90 570 405 675]
486.749	2.0	6441563	6443591	ShowFixation	ANTI	75	3	False	red	180	[1035 1515  405  675]	[405 885 405 675]
488.777	0.2	6443591	6443826	BlankScreen	ANTI	75	3	False	red	180	[1035 1515  405  675]	[405 885 405 675]
489.012	1.0	6443826	6444826	ELCue	ANTI	75	3	False	red	180	[1035 1515  405  675]	[405 885 405 675]
490.432	6.0	6445246	6451278	ShowFixation	ANTI	76	3	False	red	180	[1035 1515  405  675]	[405 885 405 675]
496.464	0.2	6451278	6451517	BlankScreen	ANTI	76	3	False	red	180	[1035 1515  405  675]	[405 885 405 675]
496.703	1.0	6451517	6452517	ELCue	ANTI	76	3	False	red	180	[1035 1515  405  675]	[405 885 405 675]
498.129	2.0	6452943	6454969	ShowFixation	VGS	77	3	False	lime	40	[ 90 570 405 675]	[1350 1830  405  675]
500.155	0.2	6454969	6455204	BlankScreen	VGS	77	3	False	lime	40	[ 90 570 405 675]	[1350 1830  405  675]
500.39	1.0	6455204	6456204	ELCue	VGS	77	3	False	lime	40	[ 90 570 405 675]	[1350 1830  405  675]
501.808	6.0	6456622	6462656	ShowFixation	VGS	78	3	False	lime	180	[405 885 405 675]	[1035 1515  405  675]
507.842	0.2	6462656	6462895	BlankScreen	VGS	78	3	False	lime	180	[405 885 405 675]	[1035 1515  405  675]
508.081	1.0	6462895	6463895	ELCue	VGS	78	3	False	lime	180	[405 885 405 675]	[1035 1515  405  675]
509.502	6.0	6464316	6470347	ShowFixation	VGS	79	3	False	lime	460	[1035 1515  405  675]	[405 885 405 675]
515.533	0.2	6470347	6470586	BlankScreen	VGS	79	3	False	lime	460	[1035 1515  405  675]	[405 885 405 675]
515.772	1.0	6470586	6471586	ELCue	VGS	79	3	False	lime	460	[1035 1515  405  675]	[405 885 405 675]
517.191	2.0	6472005	6474038	ShowFixation	ANTI	80	3	False	red	40	[1350 1830  405  675]	[ 90 570 405 675]
519.224	0.2	6474038	6474273	BlankScreen	ANTI	80	3	False	red	40	[1350 1830  405  675]	[ 90 570 405 675]
519.459	1.0	6474273	6475273	ELCue	ANTI	80	3	False	red	40	[1350 1830  405  675]	[ 90 570 405 675]
552.431	6.0	6507245	6513272	ShowFixation	ANTI	81	4	False	red	180	[1035 1515  405  675]	[405 885 405 675]
558.458	0.2	6513272	6513512	BlankScreen	ANTI	81	4	False	red	180	[1035 1515  405  675]	[405 885 405 675]
558.698	1.0	6513512	6514512	ELCue	ANTI	81	4	False	red	180	[1035 1515  405  675]	[405 885 405 675]
560.122	2.0	6514936	6516963	ShowFixation	VGS	82	4	False	lime	40	[ 90 570 405 675]	[1350 1830  405  675]
562.149	0.2	6516963	6517199	BlankScreen	VGS	82	4	False	lime	40	[ 90 570 405 675]	[1350 1830  405  675]
562.385	1.0	6517199	6518199	ELCue	VGS	82	4	False	lime	40	[ 90 570 405 675]	[1350 1830  405  675]
563.806	2.0	6518620	6520650	ShowFixation	ANTI	83	4	False	red	460	[405 885 405 675]	[1035 1515  405  675]
565.836	0.2	6520650	6520886	BlankScreen	ANTI	83	4	False	red	460	[405 885 405 675]	[1035 1515  405  675]
566.072	1.0	6520886	6521886	ELCue	ANTI	83	4	False	red	460	[405 885 405 675]	[1035 1515  405  675]
567.489	2.0	6522303	6524337	ShowFixation	VGS	84	4	False	lime	180	[405 885 405 675]	[1035 1515  405  675]
569.523	0.2	6524337	6524573	BlankScreen	VGS	84	4	False	lime	180	[405 885 405 675]	[1035 1515  405  675]
569.759	1.0	6524573	6525573	ELCue	VGS	84	4	False	lime	180	[405 885 405 675]	[1035 1515  405  675]
571.178	6.0	6525992	6532024	ShowFixation	VGS	85	4	False	lime	180	[405 885 405 675]	[1035 1515  405  675]
577.21	0.2	6532024	6532264	BlankScreen	VGS	85	4	False	lime	180	[405 885 405 675]	[1035 1515  405  675]
577.45	1.0	6532264	6533264	ELCue	VGS	85	4	False	lime	180	[405 885 405 675]	[1035 1515  405  675]
578.87	6.0	6533684	6539715	ShowFixation	ANTI	86	4	False	red	600	[ 90 570 405 675]	[1350 1830  405  675]
584.901	0.2	6539715	6539955	BlankScreen	ANTI	86	4	False	red	600	[ 90 570 405 675]	[1350 1830  405  675]
585.141	1.0	6539955	6540955	ELCue	ANTI	86	4	False	red	600	[ 90 570 405 675]	[1350 1830  405  675]
586.559	2.0	6541373	6543406	ShowFixation	ANTI	87	4	False	red	40	[1350 1830  405  675]	[ 90 570 405 675]
588.592	0.2	6543406	6543641	BlankScreen	ANTI	87	4	False	red	40	[1350 1830  405  675]	[ 90 570 405 675]
588.827	1.0	6543641	6544641	ELCue	ANTI	87	4	False	red	40	[1350 1830  405  675]	[ 90 570 405 675]
590.301	6.0	6545115	6551143	ShowFixation	VGS	88	4	False	lime	460	[1035 1515  405  675]	[405 885 405 675]
596.329	0.2	6551143	6551382	BlankScreen	VGS	88	4	False	lime	460	[1035 1515  405  675]	[405 885 405 675]
596.568	1.0	6551382	6552382	ELCue	VGS	88	4	False	lime	460	[1035 1515  405  675]	[405 885 405 675]
597.994	6.0	6552808	6558834	ShowFixation	ANTI	89	4	False	red	600	[ 90 570 405 675]	[1350 1830  405  675]
604.02	0.2	6558834	6559073	BlankScreen	ANTI	89	4	False	red	600	[ 90 570 405 675]	[1350 1830  405  675]
604.26	1.0	6559074	6560074	ELCue	ANTI	89	4	False	red	600	[ 90 570 405 675]	[1350 1830  405  675]
605.685	6.0	6560499	6566525	ShowFixation	ANTI	90	4	False	red	460	[405 885 405 675]	[1035 1515  405  675]
611.711	0.2	6566525	6566764	BlankScreen	ANTI	90	4	False	red	460	[405 885 405 675]	[1035 1515  405  675]
611.951	1.0	6566765	6567765	ELCue	ANTI	90	4	False	red	460	[405 885 405 675]	[1035 1515  405  675]
613.371	2.0	6568185	6570216	ShowFixation	ANTI	91	4	False	red	180	[1035 1515  405  675]	[405 885 405 675]
615.403	0.2	6570217	6570452	BlankScreen	ANTI	91	4	False	red	180	[1035 1515  405  675]	[405 885 405 675]
615.638	1.0	6570452	6571452	ELCue	ANTI	91	4	False	red	180	[1035 1515  405  675]	[405 885 405 675]
617.06	6.0	6571874	6577904	ShowFixation	VGS	92	4	False	lime	40	[ 90 570 405 675]	[1350 1830  405  675]
623.09	0.2	6577904	6578143	BlankScreen	VGS	92	4	False	lime	40	[ 90 570 405 675]	[1350 1830  405  675]
623.329	1.0	6578143	6579143	ELCue	VGS	92	4	False	lime	40	[ 90 570 405 675]	[1350 1830  405  675]
624.752	2.0	6579566	6581595	ShowFixation	ANTI	93	4	False	red	40	[1350 1830  405  675]	[ 90 570 405 675]
626.781	0.2	6581595	6581830	BlankScreen	ANTI	93	4	False	red	40	[1350 1830  405  675]	[ 90 570 405 675]
627.016	1.0	6581830	6582830	ELCue	ANTI	93	4	False	red	40	[1350 1830  405  675]	[ 90 570 405 675]
628.44	6.0	6583254	6589282	ShowFixation	VGS	94	4	False	lime	600	[1350 1830  405  675]	[ 90 570 405 675]
634.468	0.2	6589282	6589521	BlankScreen	VGS	94	4	False	lime	600	[1350 1830  405  675]	[ 90 570 405 675]
634.707	1.0	6589521	6590521	ELCue	VGS	94	4	False	lime	600	[1350 1830  405  675]	[ 90 570 405 675]
636.129	2.0	6590943	6592973	ShowFixation	ANTI	95	4	False	red	460	[405 885 405 675]	[1035 1515  405  675]
638.159	0.2	6592973	6593208	BlankScreen	ANTI	95	4	False	red	460	[405 885 405 675]	[1035 1515  405  675]
638.394	1.0	6593208	6594208	ELCue	ANTI	95	4	False	red	460	[405 885 405 675]	[1035 1515  405  675]
639.819	2.0	6594633	6596660	ShowFixation	ANTI	96	4	False	red	180	[1035 1515  405  675]	[405 885 405 675]
641.846	0.2	6596660	6596895	BlankScreen	ANTI	96	4	False	red	180	[1035 1515  405  675]	[405 885 405 675]
642.081	1.0	6596895	6597895	ELCue	ANTI	96	4	False	red	180	[1035 1515  405  675]	[405 885 405 675]
643.504	2.0	6598318	6600347	ShowFixation	VGS	97	4	False	lime	460	[1035 1515  405  675]	[405 885 405 675]
645.533	0.2	6600347	6600582	BlankScreen	VGS	97	4	False	lime	460	[1035 1515  405  675]	[405 885 405 675]
645.768	1.0	6600582	6601582	ELCue	VGS	97	4	False	lime	460	[1035 1515  405  675]	[405 885 405 675]
647.193	6.0	6602007	6608034	ShowFixation	ANTI	98	4	False	red	40	[1350 1830  405  675]	[ 90 570 405 675]
653.22	0.2	6608034	6608273	BlankScreen	ANTI	98	4	False	red	40	[1350 1830  405  675]	[ 90 570 405 675]
653.459	1.0	6608273	6609273	ELCue	ANTI	98	4	False	red	40	[1350 1830  405  675]	[ 90 570 405 675]
654.882	6.0	6609696	6615725	ShowFixation	ANTI	99	4	False	red	460	[405 885 405 675]	[1035 1515  405  675]
660.911	0.2	6615725	6615964	BlankScreen	ANTI	99	4	False	red	460	[405 885 405 675]	[1035 1515  405  675]
661.15	1.0	6615964	6616964	ELCue	ANTI	99	4	False	red	460	[405 885 405 675]	[1035 1515  405  675]
662.571	2.0	6617385	6619415	ShowFixation	VGS	100	4	False	lime	40	[ 90 570 405 675]	[1350 1830  405  675]
664.601	0.2	6619415	6619651	BlankScreen	VGS	100	4	False	lime	40	[ 90 570 405 675]	[1350 1830  405  675]
664.837	1.0	6619651	6620651	ELCue	VGS	100	4	False	lime	40	[ 90 570 405 675]	[1350 1830  405  675]
666.255	6.0	6621069	6627102	ShowFixation	VGS	101	4	False	lime	40	[ 90 570 405 675]	[1350 1830  405  675]
672.288	0.2	6627102	6627342	BlankScreen	VGS	101	4	False	lime	40	[ 90 570 405 675]	[1350 1830  405  675]
672.528	1.0	6627342	6628342	ELCue	VGS	101	4	False	lime	40	[ 90 570 405 675]	[1350 1830  405  675]
673.933	6.0	6628747	6634777	ShowFixation	VGS	102	4	False	lime	180	[405 885 405 675]	[1035 1515  405  675]
679.963	0.2	6634777	6635016	BlankScreen	VGS	102	4	False	lime	180	[405 885 405 675]	[1035 1515  405  675]
680.202	1.0	6635016	6636016	ELCue	VGS	102	4	False	lime	180	[405 885 405 675]	[1035 1515  405  675]
681.62	2.0	6636434	6638468	ShowFixation	VGS	103	4	False	lime	600	[1350 1830  405  675]	[ 90 570 405 675]
683.654	0.2	6638468	6638703	BlankScreen	VGS	103	4	False	lime	600	[1350 1830  405  675]	[ 90 570 405 675]
683.889	1.0	6638703	6639703	ELCue	VGS	103	4	False	lime	600	[1350 1830  405  675]	[ 90 570 405 675]
685.309	6.0	6640123	6646155	ShowFixation	VGS	104	4	False	lime	600	[1350 1830  405  675]	[ 90 570 405 675]
691.341	0.2	6646155	6646394	BlankScreen	VGS	104	4	False	lime	600	[1350 1830  405  675]	[ 90 570 405 675]
691.58	1.0	6646394	6647394	ELCue	VGS	104	4	False	lime	600	[1350 1830  405  675]	[ 90 570 405 675]
693.001	2.0	6647815	6649845	ShowFixation	VGS	105	4	False	lime	180	[405 885 405 675]	[1035 1515  405  675]
695.031	0.2	6649845	6650081	BlankScreen	VGS	105	4	False	lime	180	[405 885 405 675]	[1035 1515  405  675]
695.267	1.0	6650081	6651081	ELCue	VGS	105	4	False	lime	180	[405 885 405 675]	[1035 1515  405  675]
696.689	2.0	6651503	6653532	ShowFixation	VGS	106	4	False	lime	600	[1350 1830  405  675]	[ 90 570 405 675]
698.718	0.2	6653532	6653768	BlankScreen	VGS	106	4	False	lime	600	[1350 1830  405  675]	[ 90 570 405 675]
698.954	1.0	6653768	6654768	ELCue	VGS	106	4	False	lime	600	[1350 1830  405  675]	[ 90 570 405 675]
700.374	6.0	6655188	6661219	ShowFixation	ANTI	107	4	False	red	40	[1350 1830  405  675]	[ 90 570 405 675]
706.405	0.2	6661219	6661459	BlankScreen	ANTI	107	4	False	red	40	[1350 1830  405  675]	[ 90 570 405 675]
706.645	1.0	6661459	6662459	ELCue	ANTI	107	4	False	red	40	[1350 1830  405  675]	[ 90 570 405 675]
708.068	2.0	6662882	6664910	ShowFixation	ANTI	108	4	False	red	600	[ 90 570 405 675]	[1350 1830  405  675]
710.096	0.2	6664910	6665146	BlankScreen	ANTI	108	4	False	red	600	[ 90 570 405 675]	[1350 1830  405  675]
710.332	1.0	6665146	6666146	ELCue	ANTI	108	4	False	red	600	[ 90 570 405 675]	[1350 1830  405  675]
711.754	2.0	6666568	6668597	ShowFixation	VGS	109	4	False	lime	460	[1035 1515  405  675]	[405 885 405 675]
713.783	0.2	6668597	6668833	BlankScreen	VGS	109	4	False	lime	460	[1035 1515  405  675]	[405 885 405 675]
714.019	1.0	6668833	6669833	ELCue	VGS	109	4	False	lime	460	[1035 1515  405  675]	[405 885 405 675]
715.442	6.0	6670256	6676284	ShowFixation	VGS	110	4	False	lime	460	[1035 1515  405  675]	[405 885 405 675]
721.47	0.2	6676284	6676524	BlankScreen	VGS	110	4	False	lime	460	[1035 1515  405  675]	[405 885 405 675]
721.71	1.0	6676524	6677524	ELCue	VGS	110	4	False	lime	460	[1035 1515  405  675]	[405 885 405 675]
723.128	2.0	6677942	6679975	ShowFixation	ANTI	111	4	False	red	600	[ 90 570 405 675]	[1350 1830  405  675]
725.161	0.2	6679975	6680211	BlankScreen	ANTI	111	4	False	red	600	[ 90 570 405 675]	[1350 1830  405  675]
725.397	1.0	6680211	6681211	ELCue	ANTI	111	4	False	red	600	[ 90 570 405 675]	[1350 1830  405  675]
726.782	6.0	6681596	6687629	ShowFixation	ANTI	112	4	False	red	180	[1035 1515  405  675]	[405 885 405 675]
732.815	0.2	6687629	6687868	BlankScreen	ANTI	112	4	False	red	180	[1035 1515  405  675]	[405 885 405 675]
733.054	1.0	6687868	6688868	ELCue	ANTI	112	4	False	red	180	[1035 1515  405  675]	[405 885 405 675]
