onset	duration	startTime	stopTime	eventIdentifier	trial_type	trial_number	block_number	is_practice	fixation_color	cue_side	aoi_correct	aoi_incorrect
0.147	6.0	3671037	3677066	ShowFixation	VGS	1	1	True	lime	460	[1035 1515  405  675]	[405 885 405 675]
6.176	0.2	3677066	3677305	BlankScreen	VGS	1	1	True	lime	460	[1035 1515  405  675]	[405 885 405 675]
6.415	1.0	3677305	3678342	ELCue	VGS	1	1	True	lime	460	[1035 1515  405  675]	[405 885 405 675]
7.872	6.0	3678762	3685390	ShowFixation	ANTI	2	1	True	red	180	[1035 1515  405  675]	[405 885 405 675]
14.5	0.2	3685390	3685630	BlankScreen	ANTI	2	1	True	red	180	[1035 1515  405  675]	[405 885 405 675]
14.74	1.0	3685630	3686667	ELCue	ANTI	2	1	True	red	180	[1035 1515  405  675]	[405 885 405 675]
16.183	6.0	3687073	3693715	ShowFixation	ANTI	3	1	True	red	460	[405 885 405 675]	[1035 1515  405  675]
22.825	0.2	3693715	3693955	BlankScreen	ANTI	3	1	True	red	460	[405 885 405 675]	[1035 1515  405  675]
23.065	1.0	3693955	3694994	ELCue	ANTI	3	1	True	red	460	[405 885 405 675]	[1035 1515  405  675]
24.523	6.0	3695413	3702024	ShowFixation	VGS	4	1	True	lime	40	[ 90 570 405 675]	[1350 1830  405  675]
31.134	0.2	3702024	3702263	BlankScreen	VGS	4	1	True	lime	40	[ 90 570 405 675]	[1350 1830  405  675]
31.373	1.0	3702263	3703303	ELCue	VGS	4	1	True	lime	40	[ 90 570 405 675]	[1350 1830  405  675]
32.832	6.0	3703722	3710348	ShowFixation	VGS	5	1	True	lime	600	[1350 1830  405  675]	[ 90 570 405 675]
39.458	0.2	3710348	3710588	BlankScreen	VGS	5	1	True	lime	600	[1350 1830  405  675]	[ 90 570 405 675]
39.698	1.0	3710588	3711628	ELCue	VGS	5	1	True	lime	600	[1350 1830  405  675]	[ 90 570 405 675]
41.158	2.0	3712048	3714673	ShowFixation	VGS	6	1	True	lime	40	[ 90 570 405 675]	[1350 1830  405  675]
43.783	0.2	3714673	3714909	BlankScreen	VGS	6	1	True	lime	40	[ 90 570 405 675]	[1350 1830  405  675]
44.019	1.0	3714909	3715949	ELCue	VGS	6	1	True	lime	40	[ 90 570 405 675]	[1350 1830  405  675]
45.474	6.0	3716364	3722994	ShowFixation	ANTI	7	1	True	red	40	[1350 1830  405  675]	[ 90 570 405 675]
52.104	0.2	3722994	3723234	BlankScreen	ANTI	7	1	True	red	40	[1350 1830  405  675]	[ 90 570 405 675]
52.344	1.0	3723234	3724274	ELCue	ANTI	7	1	True	red	40	[1350 1830  405  675]	[ 90 570 405 675]
53.803	2.0	3724693	3727302	ShowFixation	ANTI	8	1	True	red	40	[1350 1830  405  675]	[ 90 570 405 675]
56.412	0.2	3727302	3727521	BlankScreen	ANTI	8	1	True	red	40	[1350 1830  405  675]	[ 90 570 405 675]
56.631	1.0	3727521	3728544	ELCue	ANTI	8	1	True	red	40	[1350 1830  405  675]	[ 90 570 405 675]
58.07	2.0	3728960	3731590	ShowFixation	VGS	9	1	True	lime	600	[1350 1830  405  675]	[ 90 570 405 675]
60.7	0.2	3731590	3731825	BlankScreen	VGS	9	1	True	lime	600	[1350 1830  405  675]	[ 90 570 405 675]
60.935	1.0	3731825	3732866	ELCue	VGS	9	1	True	lime	600	[1350 1830  405  675]	[ 90 570 405 675]
62.391	2.0	3733281	3735911	ShowFixation	VGS	10	1	True	lime	460	[1035 1515  405  675]	[405 885 405 675]
65.021	0.2	3735911	3736146	BlankScreen	VGS	10	1	True	lime	460	[1035 1515  405  675]	[405 885 405 675]
65.256	1.0	3736146	3737186	ELCue	VGS	10	1	True	lime	460	[1035 1515  405  675]	[405 885 405 675]
66.711	6.0	3737601	3744215	ShowFixation	VGS	11	1	True	lime	180	[405 885 405 675]	[1035 1515  405  675]
73.325	0.2	3744215	3744454	BlankScreen	VGS	11	1	True	lime	180	[405 885 405 675]	[1035 1515  405  675]
73.564	1.0	3744454	3745495	ELCue	VGS	11	1	True	lime	180	[405 885 405 675]	[1035 1515  405  675]
75.067	2.0	3745957	3748540	ShowFixation	VGS	12	1	True	lime	180	[405 885 405 675]	[1035 1515  405  675]
77.65	0.2	3748540	3748775	BlankScreen	VGS	12	1	True	lime	180	[405 885 405 675]	[1035 1515  405  675]
77.885	1.0	3748775	3749816	ELCue	VGS	12	1	True	lime	180	[405 885 405 675]	[1035 1515  405  675]
79.344	2.0	3750234	3752861	ShowFixation	ANTI	13	1	True	red	180	[1035 1515  405  675]	[405 885 405 675]
81.971	0.2	3752861	3753096	BlankScreen	ANTI	13	1	True	red	180	[1035 1515  405  675]	[405 885 405 675]
82.206	1.0	3753096	3754137	ELCue	ANTI	13	1	True	red	180	[1035 1515  405  675]	[405 885 405 675]
83.663	2.0	3754553	3757182	ShowFixation	ANTI	14	1	True	red	460	[405 885 405 675]	[1035 1515  405  675]
86.292	0.2	3757182	3757417	BlankScreen	ANTI	14	1	True	red	460	[405 885 405 675]	[1035 1515  405  675]
86.527	1.0	3757417	3758457	ELCue	ANTI	14	1	True	red	460	[405 885 405 675]	[1035 1515  405  675]
87.983	2.0	3758873	3761486	ShowFixation	ANTI	15	1	True	red	600	[ 90 570 405 675]	[1350 1830  405  675]
90.596	0.2	3761486	3761705	BlankScreen	ANTI	15	1	True	red	600	[ 90 570 405 675]	[1350 1830  405  675]
90.815	1.0	3761705	3762728	ELCue	ANTI	15	1	True	red	600	[ 90 570 405 675]	[1350 1830  405  675]
92.255	6.0	3763145	3769774	ShowFixation	ANTI	16	1	True	red	600	[ 90 570 405 675]	[1350 1830  405  675]
98.884	0.2	3769774	3770013	BlankScreen	ANTI	16	1	True	red	600	[ 90 570 405 675]	[1350 1830  405  675]
99.123	1.0	3770013	3771054	ELCue	ANTI	16	1	True	red	600	[ 90 570 405 675]	[1350 1830  405  675]
138.736	2.0	3809626	3811653	ShowFixation	ANTI	17	2	False	red	40	[1350 1830  405  675]	[ 90 570 405 675]
140.763	0.2	3811653	3811889	BlankScreen	ANTI	17	2	False	red	40	[1350 1830  405  675]	[ 90 570 405 675]
140.999	1.0	3811889	3812889	ELCue	ANTI	17	2	False	red	40	[1350 1830  405  675]	[ 90 570 405 675]
142.517	6.0	3813407	3819440	ShowFixation	ANTI	18	2	False	red	40	[1350 1830  405  675]	[ 90 570 405 675]
148.55	0.2	3819440	3819680	BlankScreen	ANTI	18	2	False	red	40	[1350 1830  405  675]	[ 90 570 405 675]
148.79	1.0	3819680	3820680	ELCue	ANTI	18	2	False	red	40	[1350 1830  405  675]	[ 90 570 405 675]
150.21	2.0	3821100	3823131	ShowFixation	VGS	19	2	False	lime	600	[1350 1830  405  675]	[ 90 570 405 675]
152.241	0.2	3823131	3823367	BlankScreen	VGS	19	2	False	lime	600	[1350 1830  405  675]	[ 90 570 405 675]
152.477	1.0	3823367	3824367	ELCue	VGS	19	2	False	lime	600	[1350 1830  405  675]	[ 90 570 405 675]
153.878	6.0	3824768	3830802	ShowFixation	VGS	20	2	False	lime	180	[405 885 405 675]	[1035 1515  405  675]
159.912	0.2	3830802	3831041	BlankScreen	VGS	20	2	False	lime	180	[405 885 405 675]	[1035 1515  405  675]
160.151	1.0	3831041	3832041	ELCue	VGS	20	2	False	lime	180	[405 885 405 675]	[1035 1515  405  675]
161.566	2.0	3832456	3834492	ShowFixation	VGS	21	2	False	lime	460	[1035 1515  405  675]	[405 885 405 675]
163.602	0.2	3834492	3834728	BlankScreen	VGS	21	2	False	lime	460	[1035 1515  405  675]	[405 885 405 675]
163.838	1.0	3834728	3835728	ELCue	VGS	21	2	False	lime	460	[1035 1515  405  675]	[405 885 405 675]
165.26	6.0	3836150	3842179	ShowFixation	ANTI	22	2	False	red	600	[ 90 570 405 675]	[1350 1830  405  675]
171.289	0.2	3842179	3842419	BlankScreen	ANTI	22	2	False	red	600	[ 90 570 405 675]	[1350 1830  405  675]
171.529	1.0	3842419	3843419	ELCue	ANTI	22	2	False	red	600	[ 90 570 405 675]	[1350 1830  405  675]
172.948	2.0	3843838	3845870	ShowFixation	ANTI	23	2	False	red	180	[1035 1515  405  675]	[405 885 405 675]
174.98	0.2	3845870	3846106	BlankScreen	ANTI	23	2	False	red	180	[1035 1515  405  675]	[405 885 405 675]
175.216	1.0	3846106	3847106	ELCue	ANTI	23	2	False	red	180	[1035 1515  405  675]	[405 885 405 675]
176.638	2.0	3847528	3849557	ShowFixation	VGS	24	2	False	lime	460	[1035 1515  405  675]	[405 885 405 675]
178.667	0.2	3849557	3849793	BlankScreen	VGS	24	2	False	lime	460	[1035 1515  405  675]	[405 885 405 675]
178.903	1.0	3849793	3850793	ELCue	VGS	24	2	False	lime	460	[1035 1515  405  675]	[405 885 405 675]
180.32	6.0	3851210	3857244	ShowFixation	VGS	25	2	False	lime	40	[ 90 570 405 675]	[1350 1830  405  675]
186.354	0.2	3857244	3857484	BlankScreen	VGS	25	2	False	lime	40	[ 90 570 405 675]	[1350 1830  405  675]
186.594	1.0	3857484	3858484	ELCue	VGS	25	2	False	lime	40	[ 90 570 405 675]	[1350 1830  405  675]
188.018	6.0	3858908	3864935	ShowFixation	VGS	26	2	False	lime	460	[1035 1515  405  675]	[405 885 405 675]
194.045	0.2	3864935	3865174	BlankScreen	VGS	26	2	False	lime	460	[1035 1515  405  675]	[405 885 405 675]
194.284	1.0	3865174	3866174	ELCue	VGS	26	2	False	lime	460	[1035 1515  405  675]	[405 885 405 675]
195.7	6.0	3866590	3872626	ShowFixation	VGS	27	2	False	lime	180	[405 885 405 675]	[1035 1515  405  675]
201.736	0.2	3872626	3872865	BlankScreen	VGS	27	2	False	lime	180	[405 885 405 675]	[1035 1515  405  675]
201.975	1.0	3872865	3873865	ELCue	VGS	27	2	False	lime	180	[405 885 405 675]	[1035 1515  405  675]
203.377	6.0	3874267	3880300	ShowFixation	ANTI	28	2	False	red	180	[1035 1515  405  675]	[405 885 405 675]
209.41	0.2	3880300	3880540	BlankScreen	ANTI	28	2	False	red	180	[1035 1515  405  675]	[405 885 405 675]
209.65	1.0	3880540	3881540	ELCue	ANTI	28	2	False	red	180	[1035 1515  405  675]	[405 885 405 675]
211.072	6.0	3881962	3887991	ShowFixation	ANTI	29	2	False	red	180	[1035 1515  405  675]	[405 885 405 675]
217.101	0.2	3887991	3888231	BlankScreen	ANTI	29	2	False	red	180	[1035 1515  405  675]	[405 885 405 675]
217.341	1.0	3888231	3889231	ELCue	ANTI	29	2	False	red	180	[1035 1515  405  675]	[405 885 405 675]
218.762	6.0	3889652	3895682	ShowFixation	VGS	30	2	False	lime	600	[1350 1830  405  675]	[ 90 570 405 675]
224.792	0.2	3895682	3895921	BlankScreen	VGS	30	2	False	lime	600	[1350 1830  405  675]	[ 90 570 405 675]
225.031	1.0	3895921	3896921	ELCue	VGS	30	2	False	lime	600	[1350 1830  405  675]	[ 90 570 405 675]
226.45	2.0	3897340	3899373	ShowFixation	ANTI	31	2	False	red	600	[ 90 570 405 675]	[1350 1830  405  675]
228.483	0.2	3899373	3899608	BlankScreen	ANTI	31	2	False	red	600	[ 90 570 405 675]	[1350 1830  405  675]
228.718	1.0	3899608	3900608	ELCue	ANTI	31	2	False	red	600	[ 90 570 405 675]	[1350 1830  405  675]
230.135	6.0	3901025	3907060	ShowFixation	ANTI	32	2	False	red	600	[ 90 570 405 675]	[1350 1830  405  675]
236.17	0.2	3907060	3907299	BlankScreen	ANTI	32	2	False	red	600	[ 90 570 405 675]	[1350 1830  405  675]
236.409	1.0	3907299	3908299	ELCue	ANTI	32	2	False	red	600	[ 90 570 405 675]	[1350 1830  405  675]
237.815	6.0	3908705	3914734	ShowFixation	ANTI	33	2	False	red	40	[1350 1830  405  675]	[ 90 570 405 675]
243.844	0.2	3914734	3914974	BlankScreen	ANTI	33	2	False	red	40	[1350 1830  405  675]	[ 90 570 405 675]
244.084	1.0	3914974	3915974	ELCue	ANTI	33	2	False	red	40	[1350 1830  405  675]	[ 90 570 405 675]
245.51	6.0	3916400	3922425	ShowFixation	ANTI	34	2	False	red	460	[405 885 405 675]	[1035 1515  405  675]
251.535	0.2	3922425	3922665	BlankScreen	ANTI	34	2	False	red	460	[405 885 405 675]	[1035 1515  405  675]
251.775	1.0	3922665	3923665	ELCue	ANTI	34	2	False	red	460	[405 885 405 675]	[1035 1515  405  675]
253.195	2.0	3924085	3926116	ShowFixation	VGS	35	2	False	lime	180	[405 885 405 675]	[1035 1515  405  675]
255.226	0.2	3926116	3926351	BlankScreen	VGS	35	2	False	lime	180	[405 885 405 675]	[1035 1515  405  675]
255.461	1.0	3926351	3927351	ELCue	VGS	35	2	False	lime	180	[405 885 405 675]	[1035 1515  405  675]
256.975	2.0	3927865	3929903	ShowFixation	ANTI	36	2	False	red	460	[405 885 405 675]	[1035 1515  405  675]
259.013	0.2	3929903	3930139	BlankScreen	ANTI	36	2	False	red	460	[405 885 405 675]	[1035 1515  405  675]
259.249	1.0	3930139	3931139	ELCue	ANTI	36	2	False	red	460	[405 885 405 675]	[1035 1515  405  675]
260.668	6.0	3931558	3937591	ShowFixation	VGS	37	2	False	lime	600	[1350 1830  405  675]	[ 90 570 405 675]
266.701	0.2	3937591	3937829	BlankScreen	VGS	37	2	False	lime	600	[1350 1830  405  675]	[ 90 570 405 675]
266.939	1.0	3937829	3938829	ELCue	VGS	37	2	False	lime	600	[1350 1830  405  675]	[ 90 570 405 675]
268.354	2.0	3939244	3941281	ShowFixation	ANTI	38	2	False	red	460	[405 885 405 675]	[1035 1515  405  675]
270.392	0.2	3941282	3941516	BlankScreen	ANTI	38	2	False	red	460	[405 885 405 675]	[1035 1515  405  675]
270.627	1.0	3941517	3942517	ELCue	ANTI	38	2	False	red	460	[405 885 405 675]	[1035 1515  405  675]
272.046	2.0	3942936	3944969	ShowFixation	ANTI	39	2	False	red	180	[1035 1515  405  675]	[405 885 405 675]
274.079	0.2	3944969	3945204	BlankScreen	ANTI	39	2	False	red	180	[1035 1515  405  675]	[405 885 405 675]
274.314	1.0	3945204	3946204	ELCue	ANTI	39	2	False	red	180	[1035 1515  405  675]	[405 885 405 675]
275.737	6.0	3946627	3952656	ShowFixation	VGS	40	2	False	lime	40	[ 90 570 405 675]	[1350 1830  405  675]
281.766	0.2	3952656	3952895	BlankScreen	VGS	40	2	False	lime	40	[ 90 570 405 675]	[1350 1830  405  675]
282.005	1.0	3952895	3953895	ELCue	VGS	40	2	False	lime	40	[ 90 570 405 675]	[1350 1830  405  675]
283.427	6.0	3954317	3960347	ShowFixation	ANTI	41	2	False	red	460	[405 885 405 675]	[1035 1515  405  675]
289.457	0.2	3960347	3960586	BlankScreen	ANTI	41	2	False	red	460	[405 885 405 675]	[1035 1515  405  675]
289.696	1.0	3960586	3961586	ELCue	ANTI	41	2	False	red	460	[405 885 405 675]	[1035 1515  405  675]
291.114	2.0	3962004	3964038	ShowFixation	ANTI	42	2	False	red	600	[ 90 570 405 675]	[1350 1830  405  675]
293.148	0.2	3964038	3964273	BlankScreen	ANTI	42	2	False	red	600	[ 90 570 405 675]	[1350 1830  405  675]
293.383	1.0	3964273	3965273	ELCue	ANTI	42	2	False	red	600	[ 90 570 405 675]	[1350 1830  405  675]
294.807	2.0	3965697	3967725	ShowFixation	ANTI	43	2	False	red	40	[1350 1830  405  675]	[ 90 570 405 675]
296.835	0.2	3967725	3967960	BlankScreen	ANTI	43	2	False	red	40	[1350 1830  405  675]	[ 90 570 405 675]
297.07	1.0	3967960	3968960	ELCue	ANTI	43	2	False	red	40	[1350 1830  405  675]	[ 90 570 405 675]
298.493	2.0	3969383	3971412	ShowFixation	VGS	44	2	False	lime	600	[1350 1830  405  675]	[ 90 570 405 675]
300.522	0.2	3971412	3971647	BlankScreen	VGS	44	2	False	lime	600	[1350 1830  405  675]	[ 90 570 405 675]
300.757	1.0	3971647	3972647	ELCue	VGS	44	2	False	lime	600	[1350 1830  405  675]	[ 90 570 405 675]
302.181	2.0	3973071	3975099	ShowFixation	VGS	45	2	False	lime	40	[ 90 570 405 675]	[1350 1830  405  675]
304.209	0.2	3975099	3975334	BlankScreen	VGS	45	2	False	lime	40	[ 90 570 405 675]	[1350 1830  405  675]
304.444	1.0	3975334	3976334	ELCue	VGS	45	2	False	lime	40	[ 90 570 405 675]	[1350 1830  405  675]
305.868	6.0	3976758	3982786	ShowFixation	VGS	46	2	False	lime	460	[1035 1515  405  675]	[405 885 405 675]
311.896	0.2	3982786	3983025	BlankScreen	VGS	46	2	False	lime	460	[1035 1515  405  675]	[405 885 405 675]
312.135	1.0	3983025	3984025	ELCue	VGS	46	2	False	lime	460	[1035 1515  405  675]	[405 885 405 675]
313.556	2.0	3984446	3986477	ShowFixation	VGS	47	2	False	lime	180	[405 885 405 675]	[1035 1515  405  675]
315.587	0.2	3986477	3986712	BlankScreen	VGS	47	2	False	lime	180	[405 885 405 675]	[1035 1515  405  675]
315.822	1.0	3986712	3987712	ELCue	VGS	47	2	False	lime	180	[405 885 405 675]	[1035 1515  405  675]
317.247	2.0	3988137	3990164	ShowFixation	VGS	48	2	False	lime	40	[ 90 570 405 675]	[1350 1830  405  675]
319.274	0.2	3990164	3990399	BlankScreen	VGS	48	2	False	lime	40	[ 90 570 405 675]	[1350 1830  405  675]
319.509	1.0	3990399	3991399	ELCue	VGS	48	2	False	lime	40	[ 90 570 405 675]	[1350 1830  405  675]
353.973	6.0	4024863	4030900	ShowFixation	ANTI	49	3	False	red	460	[405 885 405 675]	[1035 1515  405  675]
360.01	0.2	4030900	4031139	BlankScreen	ANTI	49	3	False	red	460	[405 885 405 675]	[1035 1515  405  675]
360.249	1.0	4031139	4032139	ELCue	ANTI	49	3	False	red	460	[405 885 405 675]	[1035 1515  405  675]
361.668	6.0	4032558	4038591	ShowFixation	VGS	50	3	False	lime	180	[405 885 405 675]	[1035 1515  405  675]
367.701	0.2	4038591	4038830	BlankScreen	VGS	50	3	False	lime	180	[405 885 405 675]	[1035 1515  405  675]
367.94	1.0	4038830	4039830	ELCue	VGS	50	3	False	lime	180	[405 885 405 675]	[1035 1515  405  675]
369.359	2.0	4040249	4042282	ShowFixation	VGS	51	3	False	lime	40	[ 90 570 405 675]	[1350 1830  405  675]
371.392	0.2	4042282	4042517	BlankScreen	VGS	51	3	False	lime	40	[ 90 570 405 675]	[1350 1830  405  675]
371.627	1.0	4042517	4043517	ELCue	VGS	51	3	False	lime	40	[ 90 570 405 675]	[1350 1830  405  675]
373.05	2.0	4043940	4045969	ShowFixation	ANTI	52	3	False	red	600	[ 90 570 405 675]	[1350 1830  405  675]
375.079	0.2	4045969	4046204	BlankScreen	ANTI	52	3	False	red	600	[ 90 570 405 675]	[1350 1830  405  675]
375.314	1.0	4046204	4047204	ELCue	ANTI	52	3	False	red	600	[ 90 570 405 675]	[1350 1830  405  675]
376.735	6.0	4047625	4053656	ShowFixation	ANTI	53	3	False	red	40	[1350 1830  405  675]	[ 90 570 405 675]
382.766	0.2	4053656	4053895	BlankScreen	ANTI	53	3	False	red	40	[1350 1830  405  675]	[ 90 570 405 675]
383.005	1.0	4053895	4054895	ELCue	ANTI	53	3	False	red	40	[1350 1830  405  675]	[ 90 570 405 675]
384.424	2.0	4055314	4057347	ShowFixation	VGS	54	3	False	lime	180	[405 885 405 675]	[1035 1515  405  675]
386.457	0.2	4057347	4057582	BlankScreen	VGS	54	3	False	lime	180	[405 885 405 675]	[1035 1515  405  675]
386.692	1.0	4057582	4058582	ELCue	VGS	54	3	False	lime	180	[405 885 405 675]	[1035 1515  405  675]
388.167	2.0	4059057	4061084	ShowFixation	ANTI	55	3	False	red	600	[ 90 570 405 675]	[1350 1830  405  675]
390.194	0.2	4061084	4061319	BlankScreen	ANTI	55	3	False	red	600	[ 90 570 405 675]	[1350 1830  405  675]
390.429	1.0	4061319	4062319	ELCue	ANTI	55	3	False	red	600	[ 90 570 405 675]	[1350 1830  405  675]
391.849	2.0	4062739	4064771	ShowFixation	ANTI	56	3	False	red	180	[1035 1515  405  675]	[405 885 405 675]
393.881	0.2	4064771	4065006	BlankScreen	ANTI	56	3	False	red	180	[1035 1515  405  675]	[405 885 405 675]
394.116	1.0	4065006	4066006	ELCue	ANTI	56	3	False	red	180	[1035 1515  405  675]	[405 885 405 675]
395.531	6.0	4066421	4072458	ShowFixation	VGS	57	3	False	lime	180	[405 885 405 675]	[1035 1515  405  675]
401.569	0.2	4072459	4072697	BlankScreen	VGS	57	3	False	lime	180	[405 885 405 675]	[1035 1515  405  675]
401.807	1.0	4072697	4073697	ELCue	VGS	57	3	False	lime	180	[405 885 405 675]	[1035 1515  405  675]
403.224	2.0	4074114	4076148	ShowFixation	VGS	58	3	False	lime	40	[ 90 570 405 675]	[1350 1830  405  675]
405.259	0.2	4076149	4076384	BlankScreen	VGS	58	3	False	lime	40	[ 90 570 405 675]	[1350 1830  405  675]
405.495	1.0	4076385	4077385	ELCue	VGS	58	3	False	lime	40	[ 90 570 405 675]	[1350 1830  405  675]
406.914	2.0	4077804	4079835	ShowFixation	ANTI	59	3	False	red	180	[1035 1515  405  675]	[405 885 405 675]
408.945	0.2	4079835	4080071	BlankScreen	ANTI	59	3	False	red	180	[1035 1515  405  675]	[405 885 405 675]
409.181	1.0	4080071	4081071	ELCue	ANTI	59	3	False	red	180	[1035 1515  405  675]	[405 885 405 675]
410.587	6.0	4081477	4087507	ShowFixation	ANTI	60	3	False	red	460	[405 885 405 675]	[1035 1515  405  675]
416.617	0.2	4087507	4087746	BlankScreen	ANTI	60	3	False	red	460	[405 885 405 675]	[1035 1515  405  675]
416.856	1.0	4087746	4088746	ELCue	ANTI	60	3	False	red	460	[405 885 405 675]	[1035 1515  405  675]
418.278	6.0	4089168	4095198	ShowFixation	ANTI	61	3	False	red	600	[ 90 570 405 675]	[1350 1830  405  675]
424.308	0.2	4095198	4095437	BlankScreen	ANTI	61	3	False	red	600	[ 90 570 405 675]	[1350 1830  405  675]
424.547	1.0	4095437	4096437	ELCue	ANTI	61	3	False	red	600	[ 90 570 405 675]	[1350 1830  405  675]
425.965	2.0	4096855	4098889	ShowFixation	ANTI	62	3	False	red	40	[1350 1830  405  675]	[ 90 570 405 675]
427.999	0.2	4098889	4099124	BlankScreen	ANTI	62	3	False	red	40	[1350 1830  405  675]	[ 90 570 405 675]
428.234	1.0	4099124	4100124	ELCue	ANTI	62	3	False	red	40	[1350 1830  405  675]	[ 90 570 405 675]
429.659	2.0	4100549	4102575	ShowFixation	VGS	63	3	False	lime	460	[1035 1515  405  675]	[405 885 405 675]
431.685	0.2	4102575	4102811	BlankScreen	VGS	63	3	False	lime	460	[1035 1515  405  675]	[405 885 405 675]
431.921	1.0	4102811	4103811	ELCue	VGS	63	3	False	lime	460	[1035 1515  405  675]	[405 885 405 675]
433.345	2.0	4104235	4106262	ShowFixation	ANTI	64	3	False	red	460	[405 885 405 675]	[1035 1515  405  675]
435.372	0.2	4106262	4106498	BlankScreen	ANTI	64	3	False	red	460	[405 885 405 675]	[1035 1515  405  675]
435.608	1.0	4106498	4107498	ELCue	ANTI	64	3	False	red	460	[405 885 405 675]	[1035 1515  405  675]
437.014	2.0	4107904	4109933	ShowFixation	ANTI	65	3	False	red	460	[405 885 405 675]	[1035 1515  405  675]
439.043	0.2	4109933	4110168	BlankScreen	ANTI	65	3	False	red	460	[405 885 405 675]	[1035 1515  405  675]
439.278	1.0	4110168	4111168	ELCue	ANTI	65	3	False	red	460	[405 885 405 675]	[1035 1515  405  675]
440.699	6.0	4111589	4117620	ShowFixation	ANTI	66	3	False	red	180	[1035 1515  405  675]	[405 885 405 675]
446.73	0.2	4117620	4117859	BlankScreen	ANTI	66	3	False	red	180	[1035 1515  405  675]	[405 885 405 675]
446.969	1.0	4117859	4118859	ELCue	ANTI	66	3	False	red	180	[1035 1515  405  675]	[405 885 405 675]
448.39	6.0	4119280	4125311	ShowFixation	VGS	67	3	False	lime	600	[1350 1830  405  675]	[ 90 570 405 675]
454.421	0.2	4125311	4125550	BlankScreen	VGS	67	3	False	lime	600	[1350 1830  405  675]	[ 90 570 405 675]
454.66	1.0	4125550	4126550	ELCue	VGS	67	3	False	lime	600	[1350 1830  405  675]	[ 90 570 405 675]
456.08	2.0	4126970	4129001	ShowFixation	VGS	68	3	False	lime	600	[1350 1830  405  675]	[ 90 570 405 675]
458.111	0.2	4129001	4129237	BlankScreen	VGS	68	3	False	lime	600	[1350 1830  405  675]	[ 90 570 405 675]
458.347	1.0	4129237	4130237	ELCue	VGS	68	3	False	lime	600	[1350 1830  405  675]	[ 90 570 405 675]
459.764	6.0	4130654	4136688	ShowFixation	VGS	69	3	False	lime	600	[1350 1830  405  675]	[ 90 570 405 675]
465.798	0.2	4136688	4136928	BlankScreen	VGS	69	3	False	lime	600	[1350 1830  405  675]	[ 90 570 405 675]
466.038	1.0	4136928	4137928	ELCue	VGS	69	3	False	lime	600	[1350 1830  405  675]	[ 90 570 405 675]
467.464	2.0	4138354	4140379	ShowFixation	VGS	70	3	False	lime	600	[1350 1830  405  675]	[ 90 570 405 675]
469.489	0.2	4140379	4140615	BlankScreen	VGS	70	3	False	lime	600	[1350 1830  405  675]	[ 90 570 405 675]
469.725	1.0	4140615	4141615	ELCue	VGS	70	3	False	lime	600	[1350 1830  405  675]	[ 90 570 405 675]
471.148	6.0	4142038	4148066	ShowFixation	ANTI	71	3	False	red	40	[1350 1830  405  675]	[ 90 570 405 675]
477.176	0.2	4148066	4148306	BlankScreen	ANTI	71	3	False	red	40	[1350 1830  405  675]	[ 90 570 405 675]
477.416	1.0	4148306	4149306	ELCue	ANTI	71	3	False	red	40	[1350 1830  405  675]	[ 90 570 405 675]
478.834	6.0	4149724	4155757	ShowFixation	VGS	72	3	False	lime	40	[ 90 570 405 675]	[1350 1830  405  675]
484.867	0.2	4155757	4155997	BlankScreen	VGS	72	3	False	lime	40	[ 90 570 405 675]	[1350 1830  405  675]
485.107	1.0	4155997	4156997	ELCue	VGS	72	3	False	lime	40	[ 90 570 405 675]	[1350 1830  405  675]
486.528	6.0	4157418	4163448	ShowFixation	VGS	73	3	False	lime	460	[1035 1515  405  675]	[405 885 405 675]
492.558	0.2	4163448	4163687	BlankScreen	VGS	73	3	False	lime	460	[1035 1515  405  675]	[405 885 405 675]
492.797	1.0	4163687	4164687	ELCue	VGS	73	3	False	lime	460	[1035 1515  405  675]	[405 885 405 675]
494.217	2.0	4165107	4167139	ShowFixation	VGS	74	3	False	lime	180	[405 885 405 675]	[1035 1515  405  675]
496.249	0.2	4167139	4167374	BlankScreen	VGS	74	3	False	lime	180	[405 885 405 675]	[1035 1515  405  675]
496.484	1.0	4167374	4168374	ELCue	VGS	74	3	False	lime	180	[405 885 405 675]	[1035 1515  405  675]
497.909	6.0	4168799	4174826	ShowFixation	ANTI	75	3	False	red	180	[1035 1515  405  675]	[405 885 405 675]
503.936	0.2	4174826	4175065	BlankScreen	ANTI	75	3	False	red	180	[1035 1515  405  675]	[405 885 405 675]
504.175	1.0	4175065	4176065	ELCue	ANTI	75	3	False	red	180	[1035 1515  405  675]	[405 885 405 675]
505.597	6.0	4176487	4182517	ShowFixation	VGS	76	3	False	lime	460	[1035 1515  405  675]	[405 885 405 675]
511.627	0.2	4182517	4182756	BlankScreen	VGS	76	3	False	lime	460	[1035 1515  405  675]	[405 885 405 675]
511.866	1.0	4182756	4183756	ELCue	VGS	76	3	False	lime	460	[1035 1515  405  675]	[405 885 405 675]
513.256	2.0	4184146	4186175	ShowFixation	VGS	77	3	False	lime	460	[1035 1515  405  675]	[405 885 405 675]
515.285	0.2	4186175	4186410	BlankScreen	VGS	77	3	False	lime	460	[1035 1515  405  675]	[405 885 405 675]
515.52	1.0	4186410	4187410	ELCue	VGS	77	3	False	lime	460	[1035 1515  405  675]	[405 885 405 675]
516.938	6.0	4187828	4193862	ShowFixation	ANTI	78	3	False	red	600	[ 90 570 405 675]	[1350 1830  405  675]
522.972	0.2	4193862	4194101	BlankScreen	ANTI	78	3	False	red	600	[ 90 570 405 675]	[1350 1830  405  675]
523.211	1.0	4194101	4195101	ELCue	ANTI	78	3	False	red	600	[ 90 570 405 675]	[1350 1830  405  675]
524.631	6.0	4195521	4201552	ShowFixation	VGS	79	3	False	lime	40	[ 90 570 405 675]	[1350 1830  405  675]
530.662	0.2	4201552	4201792	BlankScreen	VGS	79	3	False	lime	40	[ 90 570 405 675]	[1350 1830  405  675]
530.902	1.0	4201792	4202792	ELCue	VGS	79	3	False	lime	40	[ 90 570 405 675]	[1350 1830  405  675]
532.323	2.0	4203213	4205243	ShowFixation	ANTI	80	3	False	red	40	[1350 1830  405  675]	[ 90 570 405 675]
534.353	0.2	4205243	4205479	BlankScreen	ANTI	80	3	False	red	40	[1350 1830  405  675]	[ 90 570 405 675]
534.589	1.0	4205479	4206479	ELCue	ANTI	80	3	False	red	40	[1350 1830  405  675]	[ 90 570 405 675]
635.21	6.0	4306100	4312129	ShowFixation	ANTI	81	4	False	red	600	[ 90 570 405 675]	[1350 1830  405  675]
641.239	0.2	4312129	4312368	BlankScreen	ANTI	81	4	False	red	600	[ 90 570 405 675]	[1350 1830  405  675]
641.478	1.0	4312368	4313368	ELCue	ANTI	81	4	False	red	600	[ 90 570 405 675]	[1350 1830  405  675]
642.902	2.0	4313792	4315820	ShowFixation	VGS	82	4	False	lime	180	[405 885 405 675]	[1035 1515  405  675]
644.93	0.2	4315820	4316055	BlankScreen	VGS	82	4	False	lime	180	[405 885 405 675]	[1035 1515  405  675]
645.165	1.0	4316055	4317055	ELCue	VGS	82	4	False	lime	180	[405 885 405 675]	[1035 1515  405  675]
646.587	2.0	4317477	4319507	ShowFixation	VGS	83	4	False	lime	180	[405 885 405 675]	[1035 1515  405  675]
648.617	0.2	4319507	4319742	BlankScreen	VGS	83	4	False	lime	180	[405 885 405 675]	[1035 1515  405  675]
648.852	1.0	4319742	4320742	ELCue	VGS	83	4	False	lime	180	[405 885 405 675]	[1035 1515  405  675]
650.27	2.0	4321160	4323194	ShowFixation	ANTI	84	4	False	red	460	[405 885 405 675]	[1035 1515  405  675]
652.304	0.2	4323194	4323429	BlankScreen	ANTI	84	4	False	red	460	[405 885 405 675]	[1035 1515  405  675]
652.539	1.0	4323429	4324429	ELCue	ANTI	84	4	False	red	460	[405 885 405 675]	[1035 1515  405  675]
653.956	2.0	4324846	4326881	ShowFixation	ANTI	85	4	False	red	180	[1035 1515  405  675]	[405 885 405 675]
655.991	0.2	4326881	4327116	BlankScreen	ANTI	85	4	False	red	180	[1035 1515  405  675]	[405 885 405 675]
656.226	1.0	4327116	4328116	ELCue	ANTI	85	4	False	red	180	[1035 1515  405  675]	[405 885 405 675]
657.647	6.0	4328537	4334568	ShowFixation	VGS	86	4	False	lime	40	[ 90 570 405 675]	[1350 1830  405  675]
663.678	0.2	4334568	4334807	BlankScreen	VGS	86	4	False	lime	40	[ 90 570 405 675]	[1350 1830  405  675]
663.917	1.0	4334807	4335807	ELCue	VGS	86	4	False	lime	40	[ 90 570 405 675]	[1350 1830  405  675]
665.338	6.0	4336228	4342259	ShowFixation	ANTI	87	4	False	red	40	[1350 1830  405  675]	[ 90 570 405 675]
671.369	0.2	4342259	4342498	BlankScreen	ANTI	87	4	False	red	40	[1350 1830  405  675]	[ 90 570 405 675]
671.608	1.0	4342498	4343498	ELCue	ANTI	87	4	False	red	40	[1350 1830  405  675]	[ 90 570 405 675]
672.994	6.0	4343884	4349916	ShowFixation	VGS	88	4	False	lime	600	[1350 1830  405  675]	[ 90 570 405 675]
679.026	0.2	4349916	4350156	BlankScreen	VGS	88	4	False	lime	600	[1350 1830  405  675]	[ 90 570 405 675]
679.266	1.0	4350156	4351156	ELCue	VGS	88	4	False	lime	600	[1350 1830  405  675]	[ 90 570 405 675]
680.689	2.0	4351579	4353607	ShowFixation	VGS	89	4	False	lime	460	[1035 1515  405  675]	[405 885 405 675]
682.717	0.2	4353607	4353843	BlankScreen	VGS	89	4	False	lime	460	[1035 1515  405  675]	[405 885 405 675]
682.953	1.0	4353843	4354843	ELCue	VGS	89	4	False	lime	460	[1035 1515  405  675]	[405 885 405 675]
684.372	6.0	4355262	4361295	ShowFixation	ANTI	90	4	False	red	40	[1350 1830  405  675]	[ 90 570 405 675]
690.405	0.2	4361295	4361534	BlankScreen	ANTI	90	4	False	red	40	[1350 1830  405  675]	[ 90 570 405 675]
690.644	1.0	4361534	4362534	ELCue	ANTI	90	4	False	red	40	[1350 1830  405  675]	[ 90 570 405 675]
692.065	6.0	4362955	4368985	ShowFixation	VGS	91	4	False	lime	180	[405 885 405 675]	[1035 1515  405  675]
698.096	0.2	4368986	4369225	BlankScreen	VGS	91	4	False	lime	180	[405 885 405 675]	[1035 1515  405  675]
698.335	1.0	4369225	4370225	ELCue	VGS	91	4	False	lime	180	[405 885 405 675]	[1035 1515  405  675]
699.757	6.0	4370647	4376677	ShowFixation	ANTI	92	4	False	red	460	[405 885 405 675]	[1035 1515  405  675]
705.787	0.2	4376677	4376916	BlankScreen	ANTI	92	4	False	red	460	[405 885 405 675]	[1035 1515  405  675]
706.026	1.0	4376916	4377916	ELCue	ANTI	92	4	False	red	460	[405 885 405 675]	[1035 1515  405  675]
707.447	2.0	4378337	4380368	ShowFixation	ANTI	93	4	False	red	40	[1350 1830  405  675]	[ 90 570 405 675]
709.478	0.2	4380368	4380603	BlankScreen	ANTI	93	4	False	red	40	[1350 1830  405  675]	[ 90 570 405 675]
709.713	1.0	4380603	4381603	ELCue	ANTI	93	4	False	red	40	[1350 1830  405  675]	[ 90 570 405 675]
711.132	6.0	4382022	4388055	ShowFixation	VGS	94	4	False	lime	600	[1350 1830  405  675]	[ 90 570 405 675]
717.165	0.2	4388055	4388294	BlankScreen	VGS	94	4	False	lime	600	[1350 1830  405  675]	[ 90 570 405 675]
717.404	1.0	4388294	4389294	ELCue	VGS	94	4	False	lime	600	[1350 1830  405  675]	[ 90 570 405 675]
718.824	6.0	4389714	4395746	ShowFixation	ANTI	95	4	False	red	180	[1035 1515  405  675]	[405 885 405 675]
724.856	0.2	4395746	4395985	BlankScreen	ANTI	95	4	False	red	180	[1035 1515  405  675]	[405 885 405 675]
725.095	1.0	4395985	4396985	ELCue	ANTI	95	4	False	red	180	[1035 1515  405  675]	[405 885 405 675]
726.515	6.0	4397405	4403437	ShowFixation	VGS	96	4	False	lime	460	[1035 1515  405  675]	[405 885 405 675]
732.547	0.2	4403437	4403676	BlankScreen	VGS	96	4	False	lime	460	[1035 1515  405  675]	[405 885 405 675]
732.786	1.0	4403676	4404676	ELCue	VGS	96	4	False	lime	460	[1035 1515  405  675]	[405 885 405 675]
734.209	2.0	4405099	4407128	ShowFixation	VGS	97	4	False	lime	40	[ 90 570 405 675]	[1350 1830  405  675]
736.238	0.2	4407128	4407363	BlankScreen	VGS	97	4	False	lime	40	[ 90 570 405 675]	[1350 1830  405  675]
736.473	1.0	4407363	4408363	ELCue	VGS	97	4	False	lime	40	[ 90 570 405 675]	[1350 1830  405  675]
737.894	2.0	4408784	4410815	ShowFixation	ANTI	98	4	False	red	40	[1350 1830  405  675]	[ 90 570 405 675]
739.925	0.2	4410815	4411050	BlankScreen	ANTI	98	4	False	red	40	[1350 1830  405  675]	[ 90 570 405 675]
740.16	1.0	4411050	4412050	ELCue	ANTI	98	4	False	red	40	[1350 1830  405  675]	[ 90 570 405 675]
741.579	6.0	4412469	4418501	ShowFixation	ANTI	99	4	False	red	460	[405 885 405 675]	[1035 1515  405  675]
747.611	0.2	4418501	4418741	BlankScreen	ANTI	99	4	False	red	460	[405 885 405 675]	[1035 1515  405  675]
747.851	1.0	4418741	4419741	ELCue	ANTI	99	4	False	red	460	[405 885 405 675]	[1035 1515  405  675]
749.272	6.0	4420162	4426192	ShowFixation	ANTI	100	4	False	red	180	[1035 1515  405  675]	[405 885 405 675]
755.302	0.2	4426192	4426432	BlankScreen	ANTI	100	4	False	red	180	[1035 1515  405  675]	[405 885 405 675]
755.542	1.0	4426432	4427432	ELCue	ANTI	100	4	False	red	180	[1035 1515  405  675]	[405 885 405 675]
756.964	2.0	4427854	4429883	ShowFixation	ANTI	101	4	False	red	600	[ 90 570 405 675]	[1350 1830  405  675]
758.993	0.2	4429883	4430119	BlankScreen	ANTI	101	4	False	red	600	[ 90 570 405 675]	[1350 1830  405  675]
759.229	1.0	4430119	4431119	ELCue	ANTI	101	4	False	red	600	[ 90 570 405 675]	[1350 1830  405  675]
760.653	2.0	4431543	4433570	ShowFixation	ANTI	102	4	False	red	460	[405 885 405 675]	[1035 1515  405  675]
762.68	0.2	4433570	4433806	BlankScreen	ANTI	102	4	False	red	460	[405 885 405 675]	[1035 1515  405  675]
762.916	1.0	4433806	4434806	ELCue	ANTI	102	4	False	red	460	[405 885 405 675]	[1035 1515  405  675]
764.32	6.0	4435210	4441241	ShowFixation	VGS	103	4	False	lime	180	[405 885 405 675]	[1035 1515  405  675]
770.351	0.2	4441241	4441480	BlankScreen	VGS	103	4	False	lime	180	[405 885 405 675]	[1035 1515  405  675]
770.59	1.0	4441480	4442480	ELCue	VGS	103	4	False	lime	180	[405 885 405 675]	[1035 1515  405  675]
772.012	2.0	4442902	4444931	ShowFixation	VGS	104	4	False	lime	600	[1350 1830  405  675]	[ 90 570 405 675]
774.041	0.2	4444931	4445167	BlankScreen	VGS	104	4	False	lime	600	[1350 1830  405  675]	[ 90 570 405 675]
774.277	1.0	4445167	4446167	ELCue	VGS	104	4	False	lime	600	[1350 1830  405  675]	[ 90 570 405 675]
775.693	6.0	4446583	4452618	ShowFixation	VGS	105	4	False	lime	40	[ 90 570 405 675]	[1350 1830  405  675]
781.728	0.2	4452618	4452858	BlankScreen	VGS	105	4	False	lime	40	[ 90 570 405 675]	[1350 1830  405  675]
781.968	1.0	4452858	4453858	ELCue	VGS	105	4	False	lime	40	[ 90 570 405 675]	[1350 1830  405  675]
783.392	2.0	4454282	4456309	ShowFixation	VGS	106	4	False	lime	460	[1035 1515  405  675]	[405 885 405 675]
785.419	0.2	4456309	4456545	BlankScreen	VGS	106	4	False	lime	460	[1035 1515  405  675]	[405 885 405 675]
785.655	1.0	4456545	4457545	ELCue	VGS	106	4	False	lime	460	[1035 1515  405  675]	[405 885 405 675]
787.076	2.0	4457966	4459996	ShowFixation	ANTI	107	4	False	red	600	[ 90 570 405 675]	[1350 1830  405  675]
789.106	0.2	4459996	4460232	BlankScreen	ANTI	107	4	False	red	600	[ 90 570 405 675]	[1350 1830  405  675]
789.342	1.0	4460232	4461232	ELCue	ANTI	107	4	False	red	600	[ 90 570 405 675]	[1350 1830  405  675]
790.765	2.0	4461655	4463683	ShowFixation	ANTI	108	4	False	red	180	[1035 1515  405  675]	[405 885 405 675]
792.793	0.2	4463683	4463919	BlankScreen	ANTI	108	4	False	red	180	[1035 1515  405  675]	[405 885 405 675]
793.029	1.0	4463919	4464919	ELCue	ANTI	108	4	False	red	180	[1035 1515  405  675]	[405 885 405 675]
794.45	6.0	4465340	4471370	ShowFixation	VGS	109	4	False	lime	460	[1035 1515  405  675]	[405 885 405 675]
800.48	0.2	4471370	4471609	BlankScreen	VGS	109	4	False	lime	460	[1035 1515  405  675]	[405 885 405 675]
800.719	1.0	4471609	4472609	ELCue	VGS	109	4	False	lime	460	[1035 1515  405  675]	[405 885 405 675]
802.141	2.0	4473031	4475061	ShowFixation	VGS	110	4	False	lime	40	[ 90 570 405 675]	[1350 1830  405  675]
804.171	0.2	4475061	4475296	BlankScreen	VGS	110	4	False	lime	40	[ 90 570 405 675]	[1350 1830  405  675]
804.406	1.0	4475296	4476296	ELCue	VGS	110	4	False	lime	40	[ 90 570 405 675]	[1350 1830  405  675]
805.827	6.0	4476717	4482748	ShowFixation	ANTI	111	4	False	red	600	[ 90 570 405 675]	[1350 1830  405  675]
811.858	0.2	4482748	4482987	BlankScreen	ANTI	111	4	False	red	600	[ 90 570 405 675]	[1350 1830  405  675]
812.097	1.0	4482987	4483987	ELCue	ANTI	111	4	False	red	600	[ 90 570 405 675]	[1350 1830  405  675]
813.515	2.0	4484405	4486439	ShowFixation	VGS	112	4	False	lime	600	[1350 1830  405  675]	[ 90 570 405 675]
815.549	0.2	4486439	4486674	BlankScreen	VGS	112	4	False	lime	600	[1350 1830  405  675]	[ 90 570 405 675]
815.784	1.0	4486674	4487674	ELCue	VGS	112	4	False	lime	600	[1350 1830  405  675]	[ 90 570 405 675]
