onset	duration	startTime	stopTime	eventIdentifier	trial_type	trial_number	block_number	is_practice	fixation_color	cue_side	aoi_correct	aoi_incorrect
0.151	6.0	2491815	2497843	ShowFixation	VGS	1	1	True	lime	180	[405 885 405 675]	[1035 1515  405  675]
6.179	0.2	2497843	2498083	BlankScreen	VGS	1	1	True	lime	180	[405 885 405 675]	[1035 1515  405  675]
6.419	1.0	2498083	2499123	ELCue	VGS	1	1	True	lime	180	[405 885 405 675]	[1035 1515  405  675]
7.88	6.0	2499544	2506152	ShowFixation	ANTI	2	1	True	red	600	[ 90 570 405 675]	[1350 1830  405  675]
14.488	0.2	2506152	2506391	BlankScreen	ANTI	2	1	True	red	600	[ 90 570 405 675]	[1350 1830  405  675]
14.727	1.0	2506391	2507432	ELCue	ANTI	2	1	True	red	600	[ 90 570 405 675]	[1350 1830  405  675]
16.19	2.0	2507854	2510476	ShowFixation	ANTI	3	1	True	red	460	[405 885 405 675]	[1035 1515  405  675]
18.812	0.2	2510476	2510712	BlankScreen	ANTI	3	1	True	red	460	[405 885 405 675]	[1035 1515  405  675]
19.048	1.0	2510712	2511758	ELCue	ANTI	3	1	True	red	460	[405 885 405 675]	[1035 1515  405  675]
20.525	2.0	2512189	2514814	ShowFixation	VGS	4	1	True	lime	180	[405 885 405 675]	[1035 1515  405  675]
23.15	0.2	2514814	2515049	BlankScreen	VGS	4	1	True	lime	180	[405 885 405 675]	[1035 1515  405  675]
23.385	1.0	2515049	2516090	ELCue	VGS	4	1	True	lime	180	[405 885 405 675]	[1035 1515  405  675]
24.846	2.0	2516510	2519135	ShowFixation	ANTI	5	1	True	red	600	[ 90 570 405 675]	[1350 1830  405  675]
27.471	0.2	2519135	2519370	BlankScreen	ANTI	5	1	True	red	600	[ 90 570 405 675]	[1350 1830  405  675]
27.706	1.0	2519370	2520411	ELCue	ANTI	5	1	True	red	600	[ 90 570 405 675]	[1350 1830  405  675]
29.164	6.0	2520828	2527439	ShowFixation	VGS	6	1	True	lime	460	[1035 1515  405  675]	[405 885 405 675]
35.775	0.2	2527439	2527679	BlankScreen	VGS	6	1	True	lime	460	[1035 1515  405  675]	[405 885 405 675]
36.015	1.0	2527679	2528720	ELCue	VGS	6	1	True	lime	460	[1035 1515  405  675]	[405 885 405 675]
37.474	6.0	2529138	2535764	ShowFixation	VGS	7	1	True	lime	600	[1350 1830  405  675]	[ 90 570 405 675]
44.1	0.2	2535764	2536003	BlankScreen	VGS	7	1	True	lime	600	[1350 1830  405  675]	[ 90 570 405 675]
44.339	1.0	2536003	2537044	ELCue	VGS	7	1	True	lime	600	[1350 1830  405  675]	[ 90 570 405 675]
45.798	6.0	2537462	2544072	ShowFixation	ANTI	8	1	True	red	460	[405 885 405 675]	[1035 1515  405  675]
52.409	0.2	2544073	2544313	BlankScreen	ANTI	8	1	True	red	460	[405 885 405 675]	[1035 1515  405  675]
52.649	1.0	2544313	2545353	ELCue	ANTI	8	1	True	red	460	[405 885 405 675]	[1035 1515  405  675]
54.106	6.0	2545770	2552398	ShowFixation	VGS	9	1	True	lime	40	[ 90 570 405 675]	[1350 1830  405  675]
60.734	0.2	2552398	2552637	BlankScreen	VGS	9	1	True	lime	40	[ 90 570 405 675]	[1350 1830  405  675]
60.973	1.0	2552637	2553678	ELCue	VGS	9	1	True	lime	40	[ 90 570 405 675]	[1350 1830  405  675]
62.433	2.0	2554097	2556723	ShowFixation	ANTI	10	1	True	red	180	[1035 1515  405  675]	[405 885 405 675]
65.059	0.2	2556723	2556958	BlankScreen	ANTI	10	1	True	red	180	[1035 1515  405  675]	[405 885 405 675]
65.294	1.0	2556958	2557995	ELCue	ANTI	10	1	True	red	180	[1035 1515  405  675]	[405 885 405 675]
66.734	6.0	2558398	2565011	ShowFixation	ANTI	11	1	True	red	40	[1350 1830  405  675]	[ 90 570 405 675]
73.347	0.2	2565011	2565250	BlankScreen	ANTI	11	1	True	red	40	[1350 1830  405  675]	[ 90 570 405 675]
73.586	1.0	2565250	2566290	ELCue	ANTI	11	1	True	red	40	[1350 1830  405  675]	[ 90 570 405 675]
75.047	2.0	2566711	2569335	ShowFixation	VGS	12	1	True	lime	460	[1035 1515  405  675]	[405 885 405 675]
77.671	0.2	2569335	2569571	BlankScreen	VGS	12	1	True	lime	460	[1035 1515  405  675]	[405 885 405 675]
77.907	1.0	2569571	2570611	ELCue	VGS	12	1	True	lime	460	[1035 1515  405  675]	[405 885 405 675]
79.366	6.0	2571030	2577656	ShowFixation	ANTI	13	1	True	red	180	[1035 1515  405  675]	[405 885 405 675]
85.992	0.2	2577656	2577896	BlankScreen	ANTI	13	1	True	red	180	[1035 1515  405  675]	[405 885 405 675]
86.232	1.0	2577896	2578933	ELCue	ANTI	13	1	True	red	180	[1035 1515  405  675]	[405 885 405 675]
87.693	2.0	2579357	2581981	ShowFixation	VGS	14	1	True	lime	600	[1350 1830  405  675]	[ 90 570 405 675]
90.317	0.2	2581981	2582217	BlankScreen	VGS	14	1	True	lime	600	[1350 1830  405  675]	[ 90 570 405 675]
90.553	1.0	2582217	2583257	ELCue	VGS	14	1	True	lime	600	[1350 1830  405  675]	[ 90 570 405 675]
92.008	2.0	2583672	2586302	ShowFixation	ANTI	15	1	True	red	40	[1350 1830  405  675]	[ 90 570 405 675]
94.638	0.2	2586302	2586537	BlankScreen	ANTI	15	1	True	red	40	[1350 1830  405  675]	[ 90 570 405 675]
94.873	1.0	2586537	2587575	ELCue	ANTI	15	1	True	red	40	[1350 1830  405  675]	[ 90 570 405 675]
96.327	2.0	2587991	2590623	ShowFixation	VGS	16	1	True	lime	40	[ 90 570 405 675]	[1350 1830  405  675]
98.959	0.2	2590623	2590858	BlankScreen	VGS	16	1	True	lime	40	[ 90 570 405 675]	[1350 1830  405  675]
99.194	1.0	2590858	2591899	ELCue	VGS	16	1	True	lime	40	[ 90 570 405 675]	[1350 1830  405  675]
158.986	6.0	2650650	2656685	ShowFixation	ANTI	17	2	False	red	180	[1035 1515  405  675]	[405 885 405 675]
165.021	0.2	2656685	2656924	BlankScreen	ANTI	17	2	False	red	180	[1035 1515  405  675]	[405 885 405 675]
165.26	1.0	2656924	2657924	ELCue	ANTI	17	2	False	red	180	[1035 1515  405  675]	[405 885 405 675]
166.683	6.0	2658347	2664376	ShowFixation	ANTI	18	2	False	red	40	[1350 1830  405  675]	[ 90 570 405 675]
172.712	0.2	2664376	2664615	BlankScreen	ANTI	18	2	False	red	40	[1350 1830  405  675]	[ 90 570 405 675]
172.951	1.0	2664615	2665615	ELCue	ANTI	18	2	False	red	40	[1350 1830  405  675]	[ 90 570 405 675]
174.377	6.0	2666041	2672067	ShowFixation	VGS	19	2	False	lime	600	[1350 1830  405  675]	[ 90 570 405 675]
180.403	0.2	2672067	2672306	BlankScreen	VGS	19	2	False	lime	600	[1350 1830  405  675]	[ 90 570 405 675]
180.642	1.0	2672306	2673306	ELCue	VGS	19	2	False	lime	600	[1350 1830  405  675]	[ 90 570 405 675]
182.059	6.0	2673723	2679758	ShowFixation	ANTI	20	2	False	red	600	[ 90 570 405 675]	[1350 1830  405  675]
188.094	0.2	2679758	2679997	BlankScreen	ANTI	20	2	False	red	600	[ 90 570 405 675]	[1350 1830  405  675]
188.333	1.0	2679997	2680997	ELCue	ANTI	20	2	False	red	600	[ 90 570 405 675]	[1350 1830  405  675]
189.749	6.0	2681413	2687449	ShowFixation	VGS	21	2	False	lime	460	[1035 1515  405  675]	[405 885 405 675]
195.785	0.2	2687449	2687688	BlankScreen	VGS	21	2	False	lime	460	[1035 1515  405  675]	[405 885 405 675]
196.024	1.0	2687688	2688688	ELCue	VGS	21	2	False	lime	460	[1035 1515  405  675]	[405 885 405 675]
197.446	6.0	2689110	2695140	ShowFixation	ANTI	22	2	False	red	460	[405 885 405 675]	[1035 1515  405  675]
203.476	0.2	2695140	2695379	BlankScreen	ANTI	22	2	False	red	460	[405 885 405 675]	[1035 1515  405  675]
203.715	1.0	2695379	2696379	ELCue	ANTI	22	2	False	red	460	[405 885 405 675]	[1035 1515  405  675]
205.137	6.0	2696801	2702831	ShowFixation	VGS	23	2	False	lime	460	[1035 1515  405  675]	[405 885 405 675]
211.167	0.2	2702831	2703070	BlankScreen	VGS	23	2	False	lime	460	[1035 1515  405  675]	[405 885 405 675]
211.406	1.0	2703070	2704070	ELCue	VGS	23	2	False	lime	460	[1035 1515  405  675]	[405 885 405 675]
212.824	2.0	2704488	2706521	ShowFixation	ANTI	24	2	False	red	460	[405 885 405 675]	[1035 1515  405  675]
214.857	0.2	2706521	2706757	BlankScreen	ANTI	24	2	False	red	460	[405 885 405 675]	[1035 1515  405  675]
215.093	1.0	2706757	2707757	ELCue	ANTI	24	2	False	red	460	[405 885 405 675]	[1035 1515  405  675]
216.514	2.0	2708178	2710208	ShowFixation	VGS	25	2	False	lime	40	[ 90 570 405 675]	[1350 1830  405  675]
218.544	0.2	2710208	2710444	BlankScreen	VGS	25	2	False	lime	40	[ 90 570 405 675]	[1350 1830  405  675]
218.78	1.0	2710444	2711444	ELCue	VGS	25	2	False	lime	40	[ 90 570 405 675]	[1350 1830  405  675]
220.198	2.0	2711862	2713895	ShowFixation	ANTI	26	2	False	red	40	[1350 1830  405  675]	[ 90 570 405 675]
222.231	0.2	2713895	2714131	BlankScreen	ANTI	26	2	False	red	40	[1350 1830  405  675]	[ 90 570 405 675]
222.467	1.0	2714131	2715131	ELCue	ANTI	26	2	False	red	40	[1350 1830  405  675]	[ 90 570 405 675]
223.891	2.0	2715555	2717582	ShowFixation	ANTI	27	2	False	red	40	[1350 1830  405  675]	[ 90 570 405 675]
225.918	0.2	2717582	2717818	BlankScreen	ANTI	27	2	False	red	40	[1350 1830  405  675]	[ 90 570 405 675]
226.154	1.0	2717818	2718818	ELCue	ANTI	27	2	False	red	40	[1350 1830  405  675]	[ 90 570 405 675]
227.573	2.0	2719237	2721269	ShowFixation	ANTI	28	2	False	red	180	[1035 1515  405  675]	[405 885 405 675]
229.605	0.2	2721269	2721505	BlankScreen	ANTI	28	2	False	red	180	[1035 1515  405  675]	[405 885 405 675]
229.841	1.0	2721505	2722505	ELCue	ANTI	28	2	False	red	180	[1035 1515  405  675]	[405 885 405 675]
231.264	2.0	2722928	2724956	ShowFixation	ANTI	29	2	False	red	180	[1035 1515  405  675]	[405 885 405 675]
233.292	0.2	2724956	2725192	BlankScreen	ANTI	29	2	False	red	180	[1035 1515  405  675]	[405 885 405 675]
233.528	1.0	2725192	2726192	ELCue	ANTI	29	2	False	red	180	[1035 1515  405  675]	[405 885 405 675]
234.946	2.0	2726610	2728643	ShowFixation	VGS	30	2	False	lime	600	[1350 1830  405  675]	[ 90 570 405 675]
236.979	0.2	2728643	2728879	BlankScreen	VGS	30	2	False	lime	600	[1350 1830  405  675]	[ 90 570 405 675]
237.215	1.0	2728879	2729879	ELCue	VGS	30	2	False	lime	600	[1350 1830  405  675]	[ 90 570 405 675]
238.637	6.0	2730301	2736330	ShowFixation	VGS	31	2	False	lime	40	[ 90 570 405 675]	[1350 1830  405  675]
244.666	0.2	2736330	2736569	BlankScreen	VGS	31	2	False	lime	40	[ 90 570 405 675]	[1350 1830  405  675]
244.905	1.0	2736569	2737569	ELCue	VGS	31	2	False	lime	40	[ 90 570 405 675]	[1350 1830  405  675]
246.324	2.0	2737988	2740021	ShowFixation	VGS	32	2	False	lime	600	[1350 1830  405  675]	[ 90 570 405 675]
248.358	0.2	2740022	2740256	BlankScreen	VGS	32	2	False	lime	600	[1350 1830  405  675]	[ 90 570 405 675]
248.592	1.0	2740256	2741256	ELCue	VGS	32	2	False	lime	600	[1350 1830  405  675]	[ 90 570 405 675]
250.012	2.0	2741676	2743708	ShowFixation	VGS	33	2	False	lime	460	[1035 1515  405  675]	[405 885 405 675]
252.045	0.2	2743709	2743943	BlankScreen	VGS	33	2	False	lime	460	[1035 1515  405  675]	[405 885 405 675]
252.28	1.0	2743944	2744944	ELCue	VGS	33	2	False	lime	460	[1035 1515  405  675]	[405 885 405 675]
253.682	6.0	2745346	2751379	ShowFixation	ANTI	34	2	False	red	40	[1350 1830  405  675]	[ 90 570 405 675]
259.715	0.2	2751379	2751619	BlankScreen	ANTI	34	2	False	red	40	[1350 1830  405  675]	[ 90 570 405 675]
259.955	1.0	2751619	2752619	ELCue	ANTI	34	2	False	red	40	[1350 1830  405  675]	[ 90 570 405 675]
261.372	2.0	2753036	2755070	ShowFixation	ANTI	35	2	False	red	600	[ 90 570 405 675]	[1350 1830  405  675]
263.406	0.2	2755070	2755306	BlankScreen	ANTI	35	2	False	red	600	[ 90 570 405 675]	[1350 1830  405  675]
263.642	1.0	2755306	2756306	ELCue	ANTI	35	2	False	red	600	[ 90 570 405 675]	[1350 1830  405  675]
265.064	2.0	2756728	2758757	ShowFixation	VGS	36	2	False	lime	460	[1035 1515  405  675]	[405 885 405 675]
267.093	0.2	2758757	2758993	BlankScreen	VGS	36	2	False	lime	460	[1035 1515  405  675]	[405 885 405 675]
267.329	1.0	2758993	2759993	ELCue	VGS	36	2	False	lime	460	[1035 1515  405  675]	[405 885 405 675]
268.752	2.0	2760416	2762444	ShowFixation	ANTI	37	2	False	red	600	[ 90 570 405 675]	[1350 1830  405  675]
270.78	0.2	2762444	2762680	BlankScreen	ANTI	37	2	False	red	600	[ 90 570 405 675]	[1350 1830  405  675]
271.016	1.0	2762680	2763680	ELCue	ANTI	37	2	False	red	600	[ 90 570 405 675]	[1350 1830  405  675]
272.437	2.0	2764101	2766131	ShowFixation	VGS	38	2	False	lime	180	[405 885 405 675]	[1035 1515  405  675]
274.467	0.2	2766131	2766367	BlankScreen	VGS	38	2	False	lime	180	[405 885 405 675]	[1035 1515  405  675]
274.703	1.0	2766367	2767367	ELCue	VGS	38	2	False	lime	180	[405 885 405 675]	[1035 1515  405  675]
276.125	6.0	2767789	2773818	ShowFixation	VGS	39	2	False	lime	180	[405 885 405 675]	[1035 1515  405  675]
282.154	0.2	2773818	2774057	BlankScreen	VGS	39	2	False	lime	180	[405 885 405 675]	[1035 1515  405  675]
282.393	1.0	2774057	2775057	ELCue	VGS	39	2	False	lime	180	[405 885 405 675]	[1035 1515  405  675]
283.816	6.0	2775480	2781509	ShowFixation	VGS	40	2	False	lime	600	[1350 1830  405  675]	[ 90 570 405 675]
289.845	0.2	2781509	2781748	BlankScreen	VGS	40	2	False	lime	600	[1350 1830  405  675]	[ 90 570 405 675]
290.084	1.0	2781748	2782748	ELCue	VGS	40	2	False	lime	600	[1350 1830  405  675]	[ 90 570 405 675]
291.509	2.0	2783173	2785200	ShowFixation	VGS	41	2	False	lime	40	[ 90 570 405 675]	[1350 1830  405  675]
293.536	0.2	2785200	2785435	BlankScreen	VGS	41	2	False	lime	40	[ 90 570 405 675]	[1350 1830  405  675]
293.771	1.0	2785435	2786435	ELCue	VGS	41	2	False	lime	40	[ 90 570 405 675]	[1350 1830  405  675]
295.175	6.0	2786839	2792870	ShowFixation	VGS	42	2	False	lime	40	[ 90 570 405 675]	[1350 1830  405  675]
301.206	0.2	2792870	2793110	BlankScreen	VGS	42	2	False	lime	40	[ 90 570 405 675]	[1350 1830  405  675]
301.446	1.0	2793110	2794110	ELCue	VGS	42	2	False	lime	40	[ 90 570 405 675]	[1350 1830  405  675]
302.869	2.0	2794533	2796561	ShowFixation	VGS	43	2	False	lime	180	[405 885 405 675]	[1035 1515  405  675]
304.897	0.2	2796561	2796796	BlankScreen	VGS	43	2	False	lime	180	[405 885 405 675]	[1035 1515  405  675]
305.132	1.0	2796796	2797796	ELCue	VGS	43	2	False	lime	180	[405 885 405 675]	[1035 1515  405  675]
306.558	6.0	2798222	2804248	ShowFixation	ANTI	44	2	False	red	600	[ 90 570 405 675]	[1350 1830  405  675]
312.584	0.2	2804248	2804487	BlankScreen	ANTI	44	2	False	red	600	[ 90 570 405 675]	[1350 1830  405  675]
312.823	1.0	2804487	2805487	ELCue	ANTI	44	2	False	red	600	[ 90 570 405 675]	[1350 1830  405  675]
314.247	6.0	2805911	2811939	ShowFixation	ANTI	45	2	False	red	460	[405 885 405 675]	[1035 1515  405  675]
320.275	0.2	2811939	2812178	BlankScreen	ANTI	45	2	False	red	460	[405 885 405 675]	[1035 1515  405  675]
320.514	1.0	2812178	2813178	ELCue	ANTI	45	2	False	red	460	[405 885 405 675]	[1035 1515  405  675]
321.917	2.0	2813581	2815613	ShowFixation	ANTI	46	2	False	red	460	[405 885 405 675]	[1035 1515  405  675]
323.949	0.2	2815613	2815849	BlankScreen	ANTI	46	2	False	red	460	[405 885 405 675]	[1035 1515  405  675]
324.185	1.0	2815849	2816849	ELCue	ANTI	46	2	False	red	460	[405 885 405 675]	[1035 1515  405  675]
325.608	6.0	2817272	2823300	ShowFixation	ANTI	47	2	False	red	180	[1035 1515  405  675]	[405 885 405 675]
331.636	0.2	2823300	2823540	BlankScreen	ANTI	47	2	False	red	180	[1035 1515  405  675]	[405 885 405 675]
331.876	1.0	2823540	2824540	ELCue	ANTI	47	2	False	red	180	[1035 1515  405  675]	[405 885 405 675]
333.298	6.0	2824962	2830991	ShowFixation	VGS	48	2	False	lime	180	[405 885 405 675]	[1035 1515  405  675]
339.327	0.2	2830991	2831230	BlankScreen	VGS	48	2	False	lime	180	[405 885 405 675]	[1035 1515  405  675]
339.566	1.0	2831230	2832230	ELCue	VGS	48	2	False	lime	180	[405 885 405 675]	[1035 1515  405  675]
388.382	2.0	2880046	2882080	ShowFixation	ANTI	49	3	False	red	180	[1035 1515  405  675]	[405 885 405 675]
390.416	0.2	2882080	2882315	BlankScreen	ANTI	49	3	False	red	180	[1035 1515  405  675]	[405 885 405 675]
390.651	1.0	2882315	2883315	ELCue	ANTI	49	3	False	red	180	[1035 1515  405  675]	[405 885 405 675]
392.073	2.0	2883737	2885767	ShowFixation	ANTI	50	3	False	red	600	[ 90 570 405 675]	[1350 1830  405  675]
394.103	0.2	2885767	2886002	BlankScreen	ANTI	50	3	False	red	600	[ 90 570 405 675]	[1350 1830  405  675]
394.338	1.0	2886002	2887002	ELCue	ANTI	50	3	False	red	600	[ 90 570 405 675]	[1350 1830  405  675]
395.763	2.0	2887427	2889454	ShowFixation	VGS	51	3	False	lime	40	[ 90 570 405 675]	[1350 1830  405  675]
397.79	0.2	2889454	2889689	BlankScreen	VGS	51	3	False	lime	40	[ 90 570 405 675]	[1350 1830  405  675]
398.025	1.0	2889689	2890689	ELCue	VGS	51	3	False	lime	40	[ 90 570 405 675]	[1350 1830  405  675]
399.447	6.0	2891111	2897141	ShowFixation	VGS	52	3	False	lime	40	[ 90 570 405 675]	[1350 1830  405  675]
405.477	0.2	2897141	2897380	BlankScreen	VGS	52	3	False	lime	40	[ 90 570 405 675]	[1350 1830  405  675]
405.716	1.0	2897380	2898380	ELCue	VGS	52	3	False	lime	40	[ 90 570 405 675]	[1350 1830  405  675]
407.133	2.0	2898797	2900832	ShowFixation	ANTI	53	3	False	red	40	[1350 1830  405  675]	[ 90 570 405 675]
409.168	0.2	2900832	2901067	BlankScreen	ANTI	53	3	False	red	40	[1350 1830  405  675]	[ 90 570 405 675]
409.403	1.0	2901067	2902067	ELCue	ANTI	53	3	False	red	40	[1350 1830  405  675]	[ 90 570 405 675]
410.822	6.0	2902486	2908518	ShowFixation	ANTI	54	3	False	red	180	[1035 1515  405  675]	[405 885 405 675]
416.854	0.2	2908518	2908758	BlankScreen	ANTI	54	3	False	red	180	[1035 1515  405  675]	[405 885 405 675]
417.094	1.0	2908758	2909758	ELCue	ANTI	54	3	False	red	180	[1035 1515  405  675]	[405 885 405 675]
418.512	6.0	2910176	2916209	ShowFixation	VGS	55	3	False	lime	180	[405 885 405 675]	[1035 1515  405  675]
424.545	0.2	2916209	2916449	BlankScreen	VGS	55	3	False	lime	180	[405 885 405 675]	[1035 1515  405  675]
424.785	1.0	2916449	2917449	ELCue	VGS	55	3	False	lime	180	[405 885 405 675]	[1035 1515  405  675]
426.209	6.0	2917873	2923900	ShowFixation	VGS	56	3	False	lime	600	[1350 1830  405  675]	[ 90 570 405 675]
432.236	0.2	2923900	2924140	BlankScreen	VGS	56	3	False	lime	600	[1350 1830  405  675]	[ 90 570 405 675]
432.476	1.0	2924140	2925140	ELCue	VGS	56	3	False	lime	600	[1350 1830  405  675]	[ 90 570 405 675]
433.895	2.0	2925559	2927591	ShowFixation	VGS	57	3	False	lime	460	[1035 1515  405  675]	[405 885 405 675]
435.927	0.2	2927591	2927827	BlankScreen	VGS	57	3	False	lime	460	[1035 1515  405  675]	[405 885 405 675]
436.163	1.0	2927827	2928827	ELCue	VGS	57	3	False	lime	460	[1035 1515  405  675]	[405 885 405 675]
437.583	6.0	2929247	2935278	ShowFixation	VGS	58	3	False	lime	600	[1350 1830  405  675]	[ 90 570 405 675]
443.614	0.2	2935278	2935517	BlankScreen	VGS	58	3	False	lime	600	[1350 1830  405  675]	[ 90 570 405 675]
443.853	1.0	2935517	2936517	ELCue	VGS	58	3	False	lime	600	[1350 1830  405  675]	[ 90 570 405 675]
445.28	6.0	2936944	2942969	ShowFixation	ANTI	59	3	False	red	40	[1350 1830  405  675]	[ 90 570 405 675]
451.305	0.2	2942969	2943208	BlankScreen	ANTI	59	3	False	red	40	[1350 1830  405  675]	[ 90 570 405 675]
451.544	1.0	2943208	2944208	ELCue	ANTI	59	3	False	red	40	[1350 1830  405  675]	[ 90 570 405 675]
452.965	2.0	2944629	2946660	ShowFixation	ANTI	60	3	False	red	460	[405 885 405 675]	[1035 1515  405  675]
454.997	0.2	2946661	2946895	BlankScreen	ANTI	60	3	False	red	460	[405 885 405 675]	[1035 1515  405  675]
455.231	1.0	2946895	2947895	ELCue	ANTI	60	3	False	red	460	[405 885 405 675]	[1035 1515  405  675]
456.656	6.0	2948320	2954348	ShowFixation	ANTI	61	3	False	red	600	[ 90 570 405 675]	[1350 1830  405  675]
462.684	0.2	2954348	2954587	BlankScreen	ANTI	61	3	False	red	600	[ 90 570 405 675]	[1350 1830  405  675]
462.923	1.0	2954587	2955587	ELCue	ANTI	61	3	False	red	600	[ 90 570 405 675]	[1350 1830  405  675]
464.327	2.0	2955991	2958022	ShowFixation	VGS	62	3	False	lime	460	[1035 1515  405  675]	[405 885 405 675]
466.358	0.2	2958022	2958257	BlankScreen	VGS	62	3	False	lime	460	[1035 1515  405  675]	[405 885 405 675]
466.593	1.0	2958257	2959257	ELCue	VGS	62	3	False	lime	460	[1035 1515  405  675]	[405 885 405 675]
468.015	2.0	2959679	2961709	ShowFixation	ANTI	63	3	False	red	40	[1350 1830  405  675]	[ 90 570 405 675]
470.045	0.2	2961709	2961944	BlankScreen	ANTI	63	3	False	red	40	[1350 1830  405  675]	[ 90 570 405 675]
470.28	1.0	2961944	2962944	ELCue	ANTI	63	3	False	red	40	[1350 1830  405  675]	[ 90 570 405 675]
471.699	6.0	2963363	2969396	ShowFixation	ANTI	64	3	False	red	460	[405 885 405 675]	[1035 1515  405  675]
477.732	0.2	2969396	2969635	BlankScreen	ANTI	64	3	False	red	460	[405 885 405 675]	[1035 1515  405  675]
477.971	1.0	2969635	2970635	ELCue	ANTI	64	3	False	red	460	[405 885 405 675]	[1035 1515  405  675]
479.392	6.0	2971056	2977087	ShowFixation	VGS	65	3	False	lime	40	[ 90 570 405 675]	[1350 1830  405  675]
485.423	0.2	2977087	2977326	BlankScreen	VGS	65	3	False	lime	40	[ 90 570 405 675]	[1350 1830  405  675]
485.662	1.0	2977326	2978326	ELCue	VGS	65	3	False	lime	40	[ 90 570 405 675]	[1350 1830  405  675]
487.082	6.0	2978746	2984778	ShowFixation	ANTI	66	3	False	red	40	[1350 1830  405  675]	[ 90 570 405 675]
493.114	0.2	2984778	2985017	BlankScreen	ANTI	66	3	False	red	40	[1350 1830  405  675]	[ 90 570 405 675]
493.353	1.0	2985017	2986017	ELCue	ANTI	66	3	False	red	40	[1350 1830  405  675]	[ 90 570 405 675]
494.773	6.0	2986437	2992469	ShowFixation	ANTI	67	3	False	red	600	[ 90 570 405 675]	[1350 1830  405  675]
500.805	0.2	2992469	2992708	BlankScreen	ANTI	67	3	False	red	600	[ 90 570 405 675]	[1350 1830  405  675]
501.044	1.0	2992708	2993708	ELCue	ANTI	67	3	False	red	600	[ 90 570 405 675]	[1350 1830  405  675]
502.469	2.0	2994133	2996160	ShowFixation	VGS	68	3	False	lime	600	[1350 1830  405  675]	[ 90 570 405 675]
504.496	0.2	2996160	2996395	BlankScreen	VGS	68	3	False	lime	600	[1350 1830  405  675]	[ 90 570 405 675]
504.731	1.0	2996395	2997395	ELCue	VGS	68	3	False	lime	600	[1350 1830  405  675]	[ 90 570 405 675]
506.152	6.0	2997816	3003847	ShowFixation	ANTI	69	3	False	red	460	[405 885 405 675]	[1035 1515  405  675]
512.183	0.2	3003847	3004086	BlankScreen	ANTI	69	3	False	red	460	[405 885 405 675]	[1035 1515  405  675]
512.422	1.0	3004086	3005086	ELCue	ANTI	69	3	False	red	460	[405 885 405 675]	[1035 1515  405  675]
513.846	2.0	3005510	3007538	ShowFixation	VGS	70	3	False	lime	600	[1350 1830  405  675]	[ 90 570 405 675]
515.874	0.2	3007538	3007773	BlankScreen	VGS	70	3	False	lime	600	[1350 1830  405  675]	[ 90 570 405 675]
516.109	1.0	3007773	3008773	ELCue	VGS	70	3	False	lime	600	[1350 1830  405  675]	[ 90 570 405 675]
517.53	2.0	3009194	3011225	ShowFixation	ANTI	71	3	False	red	180	[1035 1515  405  675]	[405 885 405 675]
519.561	0.2	3011225	3011460	BlankScreen	ANTI	71	3	False	red	180	[1035 1515  405  675]	[405 885 405 675]
519.796	1.0	3011460	3012460	ELCue	ANTI	71	3	False	red	180	[1035 1515  405  675]	[405 885 405 675]
521.22	6.0	3012884	3018912	ShowFixation	VGS	72	3	False	lime	460	[1035 1515  405  675]	[405 885 405 675]
527.248	0.2	3018912	3019151	BlankScreen	VGS	72	3	False	lime	460	[1035 1515  405  675]	[405 885 405 675]
527.487	1.0	3019151	3020151	ELCue	VGS	72	3	False	lime	460	[1035 1515  405  675]	[405 885 405 675]
528.908	2.0	3020572	3022602	ShowFixation	ANTI	73	3	False	red	600	[ 90 570 405 675]	[1350 1830  405  675]
530.938	0.2	3022602	3022838	BlankScreen	ANTI	73	3	False	red	600	[ 90 570 405 675]	[1350 1830  405  675]
531.174	1.0	3022838	3023838	ELCue	ANTI	73	3	False	red	600	[ 90 570 405 675]	[1350 1830  405  675]
532.594	2.0	3024258	3026289	ShowFixation	VGS	74	3	False	lime	40	[ 90 570 405 675]	[1350 1830  405  675]
534.625	0.2	3026289	3026525	BlankScreen	VGS	74	3	False	lime	40	[ 90 570 405 675]	[1350 1830  405  675]
534.861	1.0	3026525	3027525	ELCue	VGS	74	3	False	lime	40	[ 90 570 405 675]	[1350 1830  405  675]
536.286	2.0	3027950	3029976	ShowFixation	VGS	75	3	False	lime	180	[405 885 405 675]	[1035 1515  405  675]
538.312	0.2	3029976	3030212	BlankScreen	VGS	75	3	False	lime	180	[405 885 405 675]	[1035 1515  405  675]
538.548	1.0	3030212	3031212	ELCue	VGS	75	3	False	lime	180	[405 885 405 675]	[1035 1515  405  675]
539.971	2.0	3031635	3033663	ShowFixation	ANTI	76	3	False	red	460	[405 885 405 675]	[1035 1515  405  675]
541.999	0.2	3033663	3033899	BlankScreen	ANTI	76	3	False	red	460	[405 885 405 675]	[1035 1515  405  675]
542.235	1.0	3033899	3034899	ELCue	ANTI	76	3	False	red	460	[405 885 405 675]	[1035 1515  405  675]
543.642	6.0	3035306	3041334	ShowFixation	ANTI	77	3	False	red	180	[1035 1515  405  675]	[405 885 405 675]
549.67	0.2	3041334	3041573	BlankScreen	ANTI	77	3	False	red	180	[1035 1515  405  675]	[405 885 405 675]
549.909	1.0	3041573	3042573	ELCue	ANTI	77	3	False	red	180	[1035 1515  405  675]	[405 885 405 675]
551.329	6.0	3042993	3049025	ShowFixation	VGS	78	3	False	lime	180	[405 885 405 675]	[1035 1515  405  675]
557.361	0.2	3049025	3049264	BlankScreen	VGS	78	3	False	lime	180	[405 885 405 675]	[1035 1515  405  675]
557.6	1.0	3049264	3050264	ELCue	VGS	78	3	False	lime	180	[405 885 405 675]	[1035 1515  405  675]
559.019	6.0	3050683	3056716	ShowFixation	VGS	79	3	False	lime	460	[1035 1515  405  675]	[405 885 405 675]
565.052	0.2	3056716	3056955	BlankScreen	VGS	79	3	False	lime	460	[1035 1515  405  675]	[405 885 405 675]
565.292	1.0	3056956	3057956	ELCue	VGS	79	3	False	lime	460	[1035 1515  405  675]	[405 885 405 675]
566.709	2.0	3058373	3060407	ShowFixation	VGS	80	3	False	lime	180	[405 885 405 675]	[1035 1515  405  675]
568.743	0.2	3060407	3060643	BlankScreen	VGS	80	3	False	lime	180	[405 885 405 675]	[1035 1515  405  675]
568.979	1.0	3060643	3061643	ELCue	VGS	80	3	False	lime	180	[405 885 405 675]	[1035 1515  405  675]
635.647	6.0	3127311	3133342	ShowFixation	ANTI	81	4	False	red	460	[405 885 405 675]	[1035 1515  405  675]
641.678	0.2	3133342	3133581	BlankScreen	ANTI	81	4	False	red	460	[405 885 405 675]	[1035 1515  405  675]
641.917	1.0	3133581	3134581	ELCue	ANTI	81	4	False	red	460	[405 885 405 675]	[1035 1515  405  675]
643.336	6.0	3135000	3141033	ShowFixation	VGS	82	4	False	lime	460	[1035 1515  405  675]	[405 885 405 675]
649.369	0.2	3141033	3141272	BlankScreen	VGS	82	4	False	lime	460	[1035 1515  405  675]	[405 885 405 675]
649.608	1.0	3141272	3142272	ELCue	VGS	82	4	False	lime	460	[1035 1515  405  675]	[405 885 405 675]
651.032	6.0	3142696	3148724	ShowFixation	VGS	83	4	False	lime	600	[1350 1830  405  675]	[ 90 570 405 675]
657.06	0.2	3148724	3148963	BlankScreen	VGS	83	4	False	lime	600	[1350 1830  405  675]	[ 90 570 405 675]
657.299	1.0	3148963	3149963	ELCue	VGS	83	4	False	lime	600	[1350 1830  405  675]	[ 90 570 405 675]
658.724	2.0	3150388	3152415	ShowFixation	VGS	84	4	False	lime	460	[1035 1515  405  675]	[405 885 405 675]
660.751	0.2	3152415	3152650	BlankScreen	VGS	84	4	False	lime	460	[1035 1515  405  675]	[405 885 405 675]
660.986	1.0	3152650	3153650	ELCue	VGS	84	4	False	lime	460	[1035 1515  405  675]	[405 885 405 675]
662.412	6.0	3154076	3160103	ShowFixation	ANTI	85	4	False	red	600	[ 90 570 405 675]	[1350 1830  405  675]
668.439	0.2	3160103	3160341	BlankScreen	ANTI	85	4	False	red	600	[ 90 570 405 675]	[1350 1830  405  675]
668.677	1.0	3160341	3161341	ELCue	ANTI	85	4	False	red	600	[ 90 570 405 675]	[1350 1830  405  675]
670.1	2.0	3161764	3163793	ShowFixation	VGS	86	4	False	lime	40	[ 90 570 405 675]	[1350 1830  405  675]
672.129	0.2	3163793	3164029	BlankScreen	VGS	86	4	False	lime	40	[ 90 570 405 675]	[1350 1830  405  675]
672.365	1.0	3164029	3165029	ELCue	VGS	86	4	False	lime	40	[ 90 570 405 675]	[1350 1830  405  675]
673.784	2.0	3165448	3167480	ShowFixation	ANTI	87	4	False	red	600	[ 90 570 405 675]	[1350 1830  405  675]
675.816	0.2	3167480	3167716	BlankScreen	ANTI	87	4	False	red	600	[ 90 570 405 675]	[1350 1830  405  675]
676.052	1.0	3167716	3168716	ELCue	ANTI	87	4	False	red	600	[ 90 570 405 675]	[1350 1830  405  675]
677.475	6.0	3169139	3175167	ShowFixation	VGS	88	4	False	lime	180	[405 885 405 675]	[1035 1515  405  675]
683.503	0.2	3175167	3175407	BlankScreen	VGS	88	4	False	lime	180	[405 885 405 675]	[1035 1515  405  675]
683.743	1.0	3175407	3176407	ELCue	VGS	88	4	False	lime	180	[405 885 405 675]	[1035 1515  405  675]
685.168	6.0	3176832	3182858	ShowFixation	ANTI	89	4	False	red	460	[405 885 405 675]	[1035 1515  405  675]
691.194	0.2	3182858	3183098	BlankScreen	ANTI	89	4	False	red	460	[405 885 405 675]	[1035 1515  405  675]
691.434	1.0	3183098	3184098	ELCue	ANTI	89	4	False	red	460	[405 885 405 675]	[1035 1515  405  675]
692.856	6.0	3184520	3190549	ShowFixation	VGS	90	4	False	lime	600	[1350 1830  405  675]	[ 90 570 405 675]
698.885	0.2	3190549	3190788	BlankScreen	VGS	90	4	False	lime	600	[1350 1830  405  675]	[ 90 570 405 675]
699.124	1.0	3190788	3191788	ELCue	VGS	90	4	False	lime	600	[1350 1830  405  675]	[ 90 570 405 675]
700.55	6.0	3192214	3198240	ShowFixation	ANTI	91	4	False	red	180	[1035 1515  405  675]	[405 885 405 675]
706.576	0.2	3198240	3198479	BlankScreen	ANTI	91	4	False	red	180	[1035 1515  405  675]	[405 885 405 675]
706.815	1.0	3198479	3199479	ELCue	ANTI	91	4	False	red	180	[1035 1515  405  675]	[405 885 405 675]
708.238	6.0	3199902	3205931	ShowFixation	ANTI	92	4	False	red	40	[1350 1830  405  675]	[ 90 570 405 675]
714.267	0.2	3205931	3206170	BlankScreen	ANTI	92	4	False	red	40	[1350 1830  405  675]	[ 90 570 405 675]
714.506	1.0	3206170	3207170	ELCue	ANTI	92	4	False	red	40	[1350 1830  405  675]	[ 90 570 405 675]
715.927	6.0	3207591	3213622	ShowFixation	VGS	93	4	False	lime	180	[405 885 405 675]	[1035 1515  405  675]
721.958	0.2	3213622	3213861	BlankScreen	VGS	93	4	False	lime	180	[405 885 405 675]	[1035 1515  405  675]
722.197	1.0	3213861	3214861	ELCue	VGS	93	4	False	lime	180	[405 885 405 675]	[1035 1515  405  675]
723.616	2.0	3215280	3217313	ShowFixation	ANTI	94	4	False	red	40	[1350 1830  405  675]	[ 90 570 405 675]
725.649	0.2	3217313	3217548	BlankScreen	ANTI	94	4	False	red	40	[1350 1830  405  675]	[ 90 570 405 675]
725.884	1.0	3217548	3218548	ELCue	ANTI	94	4	False	red	40	[1350 1830  405  675]	[ 90 570 405 675]
727.31	2.0	3218974	3221000	ShowFixation	VGS	95	4	False	lime	180	[405 885 405 675]	[1035 1515  405  675]
729.336	0.2	3221000	3221235	BlankScreen	VGS	95	4	False	lime	180	[405 885 405 675]	[1035 1515  405  675]
729.571	1.0	3221235	3222235	ELCue	VGS	95	4	False	lime	180	[405 885 405 675]	[1035 1515  405  675]
730.99	2.0	3222654	3224687	ShowFixation	VGS	96	4	False	lime	40	[ 90 570 405 675]	[1350 1830  405  675]
733.023	0.2	3224687	3224922	BlankScreen	VGS	96	4	False	lime	40	[ 90 570 405 675]	[1350 1830  405  675]
733.258	1.0	3224922	3225922	ELCue	VGS	96	4	False	lime	40	[ 90 570 405 675]	[1350 1830  405  675]
734.684	6.0	3226348	3232374	ShowFixation	VGS	97	4	False	lime	40	[ 90 570 405 675]	[1350 1830  405  675]
740.71	0.2	3232374	3232613	BlankScreen	VGS	97	4	False	lime	40	[ 90 570 405 675]	[1350 1830  405  675]
740.949	1.0	3232613	3233613	ELCue	VGS	97	4	False	lime	40	[ 90 570 405 675]	[1350 1830  405  675]
742.373	6.0	3234037	3240065	ShowFixation	ANTI	98	4	False	red	180	[1035 1515  405  675]	[405 885 405 675]
748.401	0.2	3240065	3240304	BlankScreen	ANTI	98	4	False	red	180	[1035 1515  405  675]	[405 885 405 675]
748.64	1.0	3240304	3241304	ELCue	ANTI	98	4	False	red	180	[1035 1515  405  675]	[405 885 405 675]
750.046	2.0	3241710	3243739	ShowFixation	ANTI	99	4	False	red	180	[1035 1515  405  675]	[405 885 405 675]
752.075	0.2	3243739	3243974	BlankScreen	ANTI	99	4	False	red	180	[1035 1515  405  675]	[405 885 405 675]
752.31	1.0	3243974	3244974	ELCue	ANTI	99	4	False	red	180	[1035 1515  405  675]	[405 885 405 675]
753.73	6.0	3245394	3251426	ShowFixation	VGS	100	4	False	lime	460	[1035 1515  405  675]	[405 885 405 675]
759.762	0.2	3251426	3251665	BlankScreen	VGS	100	4	False	lime	460	[1035 1515  405  675]	[405 885 405 675]
760.001	1.0	3251665	3252665	ELCue	VGS	100	4	False	lime	460	[1035 1515  405  675]	[405 885 405 675]
761.425	2.0	3253089	3255117	ShowFixation	ANTI	101	4	False	red	40	[1350 1830  405  675]	[ 90 570 405 675]
763.453	0.2	3255117	3255352	BlankScreen	ANTI	101	4	False	red	40	[1350 1830  405  675]	[ 90 570 405 675]
763.689	1.0	3255353	3256353	ELCue	ANTI	101	4	False	red	40	[1350 1830  405  675]	[ 90 570 405 675]
765.108	2.0	3256772	3258804	ShowFixation	ANTI	102	4	False	red	600	[ 90 570 405 675]	[1350 1830  405  675]
767.14	0.2	3258804	3259039	BlankScreen	ANTI	102	4	False	red	600	[ 90 570 405 675]	[1350 1830  405  675]
767.376	1.0	3259040	3260040	ELCue	ANTI	102	4	False	red	600	[ 90 570 405 675]	[1350 1830  405  675]
768.795	6.0	3260459	3266492	ShowFixation	VGS	103	4	False	lime	40	[ 90 570 405 675]	[1350 1830  405  675]
774.828	0.2	3266492	3266731	BlankScreen	VGS	103	4	False	lime	40	[ 90 570 405 675]	[1350 1830  405  675]
775.067	1.0	3266731	3267731	ELCue	VGS	103	4	False	lime	40	[ 90 570 405 675]	[1350 1830  405  675]
776.485	6.0	3268149	3274183	ShowFixation	ANTI	104	4	False	red	40	[1350 1830  405  675]	[ 90 570 405 675]
782.519	0.2	3274183	3274422	BlankScreen	ANTI	104	4	False	red	40	[1350 1830  405  675]	[ 90 570 405 675]
782.758	1.0	3274422	3275422	ELCue	ANTI	104	4	False	red	40	[1350 1830  405  675]	[ 90 570 405 675]
784.182	2.0	3275846	3277873	ShowFixation	ANTI	105	4	False	red	460	[405 885 405 675]	[1035 1515  405  675]
786.209	0.2	3277873	3278109	BlankScreen	ANTI	105	4	False	red	460	[405 885 405 675]	[1035 1515  405  675]
786.445	1.0	3278109	3279109	ELCue	ANTI	105	4	False	red	460	[405 885 405 675]	[1035 1515  405  675]
787.862	2.0	3279526	3281560	ShowFixation	VGS	106	4	False	lime	600	[1350 1830  405  675]	[ 90 570 405 675]
789.896	0.2	3281560	3281796	BlankScreen	VGS	106	4	False	lime	600	[1350 1830  405  675]	[ 90 570 405 675]
790.132	1.0	3281796	3282796	ELCue	VGS	106	4	False	lime	600	[1350 1830  405  675]	[ 90 570 405 675]
791.549	2.0	3283213	3285247	ShowFixation	VGS	107	4	False	lime	180	[405 885 405 675]	[1035 1515  405  675]
793.583	0.2	3285247	3285483	BlankScreen	VGS	107	4	False	lime	180	[405 885 405 675]	[1035 1515  405  675]
793.819	1.0	3285483	3286483	ELCue	VGS	107	4	False	lime	180	[405 885 405 675]	[1035 1515  405  675]
795.242	2.0	3286906	3288934	ShowFixation	VGS	108	4	False	lime	460	[1035 1515  405  675]	[405 885 405 675]
797.27	0.2	3288934	3289170	BlankScreen	VGS	108	4	False	lime	460	[1035 1515  405  675]	[405 885 405 675]
797.506	1.0	3289170	3290170	ELCue	VGS	108	4	False	lime	460	[1035 1515  405  675]	[405 885 405 675]
798.924	6.0	3290588	3296621	ShowFixation	ANTI	109	4	False	red	600	[ 90 570 405 675]	[1350 1830  405  675]
804.957	0.2	3296621	3296861	BlankScreen	ANTI	109	4	False	red	600	[ 90 570 405 675]	[1350 1830  405  675]
805.197	1.0	3296861	3297861	ELCue	ANTI	109	4	False	red	600	[ 90 570 405 675]	[1350 1830  405  675]
806.618	2.0	3298282	3300312	ShowFixation	ANTI	110	4	False	red	180	[1035 1515  405  675]	[405 885 405 675]
808.648	0.2	3300312	3300548	BlankScreen	ANTI	110	4	False	red	180	[1035 1515  405  675]	[405 885 405 675]
808.884	1.0	3300548	3301548	ELCue	ANTI	110	4	False	red	180	[1035 1515  405  675]	[405 885 405 675]
810.302	2.0	3301966	3303999	ShowFixation	VGS	111	4	False	lime	600	[1350 1830  405  675]	[ 90 570 405 675]
812.335	0.2	3303999	3304235	BlankScreen	VGS	111	4	False	lime	600	[1350 1830  405  675]	[ 90 570 405 675]
812.571	1.0	3304235	3305235	ELCue	VGS	111	4	False	lime	600	[1350 1830  405  675]	[ 90 570 405 675]
813.995	2.0	3305659	3307686	ShowFixation	ANTI	112	4	False	red	460	[405 885 405 675]	[1035 1515  405  675]
816.022	0.2	3307686	3307921	BlankScreen	ANTI	112	4	False	red	460	[405 885 405 675]	[1035 1515  405  675]
816.257	1.0	3307921	3308921	ELCue	ANTI	112	4	False	red	460	[405 885 405 675]	[1035 1515  405  675]
