onset	duration	startTime	stopTime	eventIdentifier	trial_type	trial_number	block_number	is_practice	fixation_color	cue_side	aoi_correct	aoi_incorrect
0.146	2.0	3087859	3089885	ShowFixation	ANTI	1	1	True	red	600	[ 90 570 405 675]	[1350 1830  405  675]
2.172	0.2	3089885	3090121	BlankScreen	ANTI	1	1	True	red	600	[ 90 570 405 675]	[1350 1830  405  675]
2.408	1.0	3090121	3091161	ELCue	ANTI	1	1	True	red	600	[ 90 570 405 675]	[1350 1830  405  675]
3.853	6.0	3091566	3098206	ShowFixation	ANTI	2	1	True	red	40	[1350 1830  405  675]	[ 90 570 405 675]
10.493	0.2	3098206	3098446	BlankScreen	ANTI	2	1	True	red	40	[1350 1830  405  675]	[ 90 570 405 675]
10.733	1.0	3098446	3099486	ELCue	ANTI	2	1	True	red	40	[1350 1830  405  675]	[ 90 570 405 675]
12.173	2.0	3099886	3102531	ShowFixation	ANTI	3	1	True	red	180	[1035 1515  405  675]	[405 885 405 675]
14.818	0.2	3102531	3102767	BlankScreen	ANTI	3	1	True	red	180	[1035 1515  405  675]	[405 885 405 675]
15.054	1.0	3102767	3103807	ELCue	ANTI	3	1	True	red	180	[1035 1515  405  675]	[405 885 405 675]
16.493	6.0	3104206	3110852	ShowFixation	ANTI	4	1	True	red	180	[1035 1515  405  675]	[405 885 405 675]
23.139	0.2	3110852	3111091	BlankScreen	ANTI	4	1	True	red	180	[1035 1515  405  675]	[405 885 405 675]
23.378	1.0	3111091	3112132	ELCue	ANTI	4	1	True	red	180	[1035 1515  405  675]	[405 885 405 675]
24.801	2.0	3112514	3115177	ShowFixation	ANTI	5	1	True	red	40	[1350 1830  405  675]	[ 90 570 405 675]
27.464	0.2	3115177	3115412	BlankScreen	ANTI	5	1	True	red	40	[1350 1830  405  675]	[ 90 570 405 675]
27.699	1.0	3115412	3116453	ELCue	ANTI	5	1	True	red	40	[1350 1830  405  675]	[ 90 570 405 675]
29.144	6.0	3116857	3123481	ShowFixation	VGS	6	1	True	lime	600	[1350 1830  405  675]	[ 90 570 405 675]
35.768	0.2	3123481	3123721	BlankScreen	VGS	6	1	True	lime	600	[1350 1830  405  675]	[ 90 570 405 675]
36.008	1.0	3123721	3124761	ELCue	VGS	6	1	True	lime	600	[1350 1830  405  675]	[ 90 570 405 675]
37.452	6.0	3125165	3131806	ShowFixation	VGS	7	1	True	lime	460	[1035 1515  405  675]	[405 885 405 675]
44.093	0.2	3131806	3132045	BlankScreen	VGS	7	1	True	lime	460	[1035 1515  405  675]	[405 885 405 675]
44.332	1.0	3132045	3133087	ELCue	VGS	7	1	True	lime	460	[1035 1515  405  675]	[405 885 405 675]
45.781	2.0	3133494	3136131	ShowFixation	VGS	8	1	True	lime	180	[405 885 405 675]	[1035 1515  405  675]
48.418	0.2	3136131	3136366	BlankScreen	VGS	8	1	True	lime	180	[405 885 405 675]	[1035 1515  405  675]
48.653	1.0	3136366	3137407	ELCue	VGS	8	1	True	lime	180	[405 885 405 675]	[1035 1515  405  675]
50.098	6.0	3137811	3144453	ShowFixation	ANTI	9	1	True	red	460	[405 885 405 675]	[1035 1515  405  675]
56.74	0.2	3144453	3144692	BlankScreen	ANTI	9	1	True	red	460	[405 885 405 675]	[1035 1515  405  675]
56.979	1.0	3144692	3145732	ELCue	ANTI	9	1	True	red	460	[405 885 405 675]	[1035 1515  405  675]
58.425	6.0	3146138	3152778	ShowFixation	VGS	10	1	True	lime	180	[405 885 405 675]	[1035 1515  405  675]
65.065	0.2	3152778	3153017	BlankScreen	VGS	10	1	True	lime	180	[405 885 405 675]	[1035 1515  405  675]
65.304	1.0	3153017	3154057	ELCue	VGS	10	1	True	lime	180	[405 885 405 675]	[1035 1515  405  675]
66.712	2.0	3154425	3157086	ShowFixation	ANTI	11	1	True	red	460	[405 885 405 675]	[1035 1515  405  675]
69.373	0.2	3157086	3157305	BlankScreen	ANTI	11	1	True	red	460	[405 885 405 675]	[1035 1515  405  675]
69.592	1.0	3157305	3158328	ELCue	ANTI	11	1	True	red	460	[405 885 405 675]	[1035 1515  405  675]
71.019	2.0	3158732	3161374	ShowFixation	VGS	12	1	True	lime	460	[1035 1515  405  675]	[405 885 405 675]
73.661	0.2	3161374	3161609	BlankScreen	VGS	12	1	True	lime	460	[1035 1515  405  675]	[405 885 405 675]
73.896	1.0	3161609	3162649	ELCue	VGS	12	1	True	lime	460	[1035 1515  405  675]	[405 885 405 675]
75.338	6.0	3163051	3169695	ShowFixation	ANTI	13	1	True	red	600	[ 90 570 405 675]	[1350 1830  405  675]
81.982	0.2	3169695	3169934	BlankScreen	ANTI	13	1	True	red	600	[ 90 570 405 675]	[1350 1830  405  675]
82.221	1.0	3169934	3170974	ELCue	ANTI	13	1	True	red	600	[ 90 570 405 675]	[1350 1830  405  675]
83.669	6.0	3171382	3178003	ShowFixation	VGS	14	1	True	lime	40	[ 90 570 405 675]	[1350 1830  405  675]
90.29	0.2	3178003	3178242	BlankScreen	VGS	14	1	True	lime	40	[ 90 570 405 675]	[1350 1830  405  675]
90.529	1.0	3178242	3179283	ELCue	VGS	14	1	True	lime	40	[ 90 570 405 675]	[1350 1830  405  675]
91.941	2.0	3179654	3182328	ShowFixation	VGS	15	1	True	lime	40	[ 90 570 405 675]	[1350 1830  405  675]
94.615	0.2	3182328	3182563	BlankScreen	VGS	15	1	True	lime	40	[ 90 570 405 675]	[1350 1830  405  675]
94.85	1.0	3182563	3183603	ELCue	VGS	15	1	True	lime	40	[ 90 570 405 675]	[1350 1830  405  675]
96.292	2.0	3184005	3186649	ShowFixation	VGS	16	1	True	lime	600	[1350 1830  405  675]	[ 90 570 405 675]
98.936	0.2	3186649	3186884	BlankScreen	VGS	16	1	True	lime	600	[1350 1830  405  675]	[ 90 570 405 675]
99.171	1.0	3186884	3187924	ELCue	VGS	16	1	True	lime	600	[1350 1830  405  675]	[ 90 570 405 675]
139.716	6.0	3227429	3233457	ShowFixation	VGS	17	2	False	lime	180	[405 885 405 675]	[1035 1515  405  675]
145.744	0.2	3233457	3233697	BlankScreen	VGS	17	2	False	lime	180	[405 885 405 675]	[1035 1515  405  675]
145.984	1.0	3233697	3234697	ELCue	VGS	17	2	False	lime	180	[405 885 405 675]	[1035 1515  405  675]
147.39	6.0	3235103	3241132	ShowFixation	VGS	18	2	False	lime	460	[1035 1515  405  675]	[405 885 405 675]
153.419	0.2	3241132	3241371	BlankScreen	VGS	18	2	False	lime	460	[1035 1515  405  675]	[405 885 405 675]
153.658	1.0	3241371	3242371	ELCue	VGS	18	2	False	lime	460	[1035 1515  405  675]	[405 885 405 675]
155.069	2.0	3242782	3244806	ShowFixation	VGS	19	2	False	lime	600	[1350 1830  405  675]	[ 90 570 405 675]
157.094	0.2	3244807	3245041	BlankScreen	VGS	19	2	False	lime	600	[1350 1830  405  675]	[ 90 570 405 675]
157.329	1.0	3245042	3246042	ELCue	VGS	19	2	False	lime	600	[1350 1830  405  675]	[ 90 570 405 675]
158.74	6.0	3246453	3252494	ShowFixation	ANTI	20	2	False	red	600	[ 90 570 405 675]	[1350 1830  405  675]
164.781	0.2	3252494	3252733	BlankScreen	ANTI	20	2	False	red	600	[ 90 570 405 675]	[1350 1830  405  675]
165.02	1.0	3252733	3253733	ELCue	ANTI	20	2	False	red	600	[ 90 570 405 675]	[1350 1830  405  675]
166.394	2.0	3254107	3256134	ShowFixation	VGS	21	2	False	lime	460	[1035 1515  405  675]	[405 885 405 675]
168.422	0.2	3256135	3256370	BlankScreen	VGS	21	2	False	lime	460	[1035 1515  405  675]	[405 885 405 675]
168.657	1.0	3256370	3257370	ELCue	VGS	21	2	False	lime	460	[1035 1515  405  675]	[405 885 405 675]
170.063	2.0	3257776	3259805	ShowFixation	VGS	22	2	False	lime	180	[405 885 405 675]	[1035 1515  405  675]
172.092	0.2	3259805	3260040	BlankScreen	VGS	22	2	False	lime	180	[405 885 405 675]	[1035 1515  405  675]
172.327	1.0	3260040	3261040	ELCue	VGS	22	2	False	lime	180	[405 885 405 675]	[1035 1515  405  675]
173.738	2.0	3261451	3263492	ShowFixation	VGS	23	2	False	lime	180	[405 885 405 675]	[1035 1515  405  675]
175.779	0.2	3263492	3263727	BlankScreen	VGS	23	2	False	lime	180	[405 885 405 675]	[1035 1515  405  675]
176.014	1.0	3263727	3264727	ELCue	VGS	23	2	False	lime	180	[405 885 405 675]	[1035 1515  405  675]
177.423	6.0	3265136	3271162	ShowFixation	VGS	24	2	False	lime	460	[1035 1515  405  675]	[405 885 405 675]
183.449	0.2	3271162	3271402	BlankScreen	VGS	24	2	False	lime	460	[1035 1515  405  675]	[405 885 405 675]
183.689	1.0	3271402	3272402	ELCue	VGS	24	2	False	lime	460	[1035 1515  405  675]	[405 885 405 675]
185.094	2.0	3272807	3274837	ShowFixation	ANTI	25	2	False	red	180	[1035 1515  405  675]	[405 885 405 675]
187.124	0.2	3274837	3275072	BlankScreen	ANTI	25	2	False	red	180	[1035 1515  405  675]	[405 885 405 675]
187.359	1.0	3275072	3276072	ELCue	ANTI	25	2	False	red	180	[1035 1515  405  675]	[405 885 405 675]
188.747	6.0	3276460	3282490	ShowFixation	ANTI	26	2	False	red	600	[ 90 570 405 675]	[1350 1830  405  675]
194.777	0.2	3282490	3282729	BlankScreen	ANTI	26	2	False	red	600	[ 90 570 405 675]	[1350 1830  405  675]
195.016	1.0	3282729	3283729	ELCue	ANTI	26	2	False	red	600	[ 90 570 405 675]	[1350 1830  405  675]
196.403	2.0	3284116	3286148	ShowFixation	ANTI	27	2	False	red	40	[1350 1830  405  675]	[ 90 570 405 675]
198.435	0.2	3286148	3286383	BlankScreen	ANTI	27	2	False	red	40	[1350 1830  405  675]	[ 90 570 405 675]
198.67	1.0	3286383	3287383	ELCue	ANTI	27	2	False	red	40	[1350 1830  405  675]	[ 90 570 405 675]
200.079	2.0	3287792	3289818	ShowFixation	VGS	28	2	False	lime	40	[ 90 570 405 675]	[1350 1830  405  675]
202.105	0.2	3289818	3290053	BlankScreen	VGS	28	2	False	lime	40	[ 90 570 405 675]	[1350 1830  405  675]
202.34	1.0	3290053	3291053	ELCue	VGS	28	2	False	lime	40	[ 90 570 405 675]	[1350 1830  405  675]
203.751	6.0	3291464	3297505	ShowFixation	ANTI	29	2	False	red	460	[405 885 405 675]	[1035 1515  405  675]
209.792	0.2	3297505	3297744	BlankScreen	ANTI	29	2	False	red	460	[405 885 405 675]	[1035 1515  405  675]
210.031	1.0	3297744	3298744	ELCue	ANTI	29	2	False	red	460	[405 885 405 675]	[1035 1515  405  675]
211.425	6.0	3299138	3305179	ShowFixation	VGS	30	2	False	lime	600	[1350 1830  405  675]	[ 90 570 405 675]
217.466	0.2	3305179	3305419	BlankScreen	VGS	30	2	False	lime	600	[1350 1830  405  675]	[ 90 570 405 675]
217.706	1.0	3305419	3306419	ELCue	VGS	30	2	False	lime	600	[1350 1830  405  675]	[ 90 570 405 675]
219.112	6.0	3306825	3312853	ShowFixation	ANTI	31	2	False	red	460	[405 885 405 675]	[1035 1515  405  675]
225.14	0.2	3312853	3313093	BlankScreen	ANTI	31	2	False	red	460	[405 885 405 675]	[1035 1515  405  675]
225.38	1.0	3313093	3314093	ELCue	ANTI	31	2	False	red	460	[405 885 405 675]	[1035 1515  405  675]
226.793	2.0	3314506	3316544	ShowFixation	ANTI	32	2	False	red	600	[ 90 570 405 675]	[1350 1830  405  675]
228.831	0.2	3316544	3316780	BlankScreen	ANTI	32	2	False	red	600	[ 90 570 405 675]	[1350 1830  405  675]
229.067	1.0	3316780	3317780	ELCue	ANTI	32	2	False	red	600	[ 90 570 405 675]	[1350 1830  405  675]
230.458	6.0	3318171	3324198	ShowFixation	VGS	33	2	False	lime	40	[ 90 570 405 675]	[1350 1830  405  675]
236.485	0.2	3324198	3324437	BlankScreen	VGS	33	2	False	lime	40	[ 90 570 405 675]	[1350 1830  405  675]
236.724	1.0	3324437	3325437	ELCue	VGS	33	2	False	lime	40	[ 90 570 405 675]	[1350 1830  405  675]
238.13	6.0	3325843	3331872	ShowFixation	VGS	34	2	False	lime	600	[1350 1830  405  675]	[ 90 570 405 675]
244.159	0.2	3331872	3332112	BlankScreen	VGS	34	2	False	lime	600	[1350 1830  405  675]	[ 90 570 405 675]
244.399	1.0	3332112	3333112	ELCue	VGS	34	2	False	lime	600	[1350 1830  405  675]	[ 90 570 405 675]
245.807	6.0	3333520	3339546	ShowFixation	VGS	35	2	False	lime	40	[ 90 570 405 675]	[1350 1830  405  675]
251.833	0.2	3339546	3339786	BlankScreen	VGS	35	2	False	lime	40	[ 90 570 405 675]	[1350 1830  405  675]
252.073	1.0	3339786	3340786	ELCue	VGS	35	2	False	lime	40	[ 90 570 405 675]	[1350 1830  405  675]
253.464	6.0	3341177	3347204	ShowFixation	ANTI	36	2	False	red	40	[1350 1830  405  675]	[ 90 570 405 675]
259.491	0.2	3347204	3347443	BlankScreen	ANTI	36	2	False	red	40	[1350 1830  405  675]	[ 90 570 405 675]
259.73	1.0	3347443	3348443	ELCue	ANTI	36	2	False	red	40	[1350 1830  405  675]	[ 90 570 405 675]
261.133	2.0	3348846	3350878	ShowFixation	ANTI	37	2	False	red	460	[405 885 405 675]	[1035 1515  405  675]
263.165	0.2	3350878	3351114	BlankScreen	ANTI	37	2	False	red	460	[405 885 405 675]	[1035 1515  405  675]
263.401	1.0	3351114	3352114	ELCue	ANTI	37	2	False	red	460	[405 885 405 675]	[1035 1515  405  675]
264.809	2.0	3352522	3354550	ShowFixation	ANTI	38	2	False	red	460	[405 885 405 675]	[1035 1515  405  675]
266.837	0.2	3354550	3354785	BlankScreen	ANTI	38	2	False	red	460	[405 885 405 675]	[1035 1515  405  675]
267.072	1.0	3354785	3355785	ELCue	ANTI	38	2	False	red	460	[405 885 405 675]	[1035 1515  405  675]
268.481	6.0	3356194	3362220	ShowFixation	ANTI	39	2	False	red	40	[1350 1830  405  675]	[ 90 570 405 675]
274.507	0.2	3362220	3362459	BlankScreen	ANTI	39	2	False	red	40	[1350 1830  405  675]	[ 90 570 405 675]
274.746	1.0	3362459	3363459	ELCue	ANTI	39	2	False	red	40	[1350 1830  405  675]	[ 90 570 405 675]
276.156	6.0	3363869	3369894	ShowFixation	ANTI	40	2	False	red	180	[1035 1515  405  675]	[405 885 405 675]
282.181	0.2	3369894	3370133	BlankScreen	ANTI	40	2	False	red	180	[1035 1515  405  675]	[405 885 405 675]
282.42	1.0	3370133	3371133	ELCue	ANTI	40	2	False	red	180	[1035 1515  405  675]	[405 885 405 675]
283.807	2.0	3371520	3373552	ShowFixation	ANTI	41	2	False	red	600	[ 90 570 405 675]	[1350 1830  405  675]
285.839	0.2	3373552	3373787	BlankScreen	ANTI	41	2	False	red	600	[ 90 570 405 675]	[1350 1830  405  675]
286.074	1.0	3373787	3374787	ELCue	ANTI	41	2	False	red	600	[ 90 570 405 675]	[1350 1830  405  675]
287.483	6.0	3375196	3381222	ShowFixation	ANTI	42	2	False	red	180	[1035 1515  405  675]	[405 885 405 675]
293.509	0.2	3381222	3381461	BlankScreen	ANTI	42	2	False	red	180	[1035 1515  405  675]	[405 885 405 675]
293.748	1.0	3381461	3382461	ELCue	ANTI	42	2	False	red	180	[1035 1515  405  675]	[405 885 405 675]
295.16	2.0	3382873	3384913	ShowFixation	ANTI	43	2	False	red	180	[1035 1515  405  675]	[405 885 405 675]
297.2	0.2	3384913	3385148	BlankScreen	ANTI	43	2	False	red	180	[1035 1515  405  675]	[405 885 405 675]
297.435	1.0	3385148	3386148	ELCue	ANTI	43	2	False	red	180	[1035 1515  405  675]	[405 885 405 675]
298.842	2.0	3386555	3388583	ShowFixation	VGS	44	2	False	lime	460	[1035 1515  405  675]	[405 885 405 675]
300.87	0.2	3388583	3388818	BlankScreen	VGS	44	2	False	lime	460	[1035 1515  405  675]	[405 885 405 675]
301.105	1.0	3388818	3389818	ELCue	VGS	44	2	False	lime	460	[1035 1515  405  675]	[405 885 405 675]
302.516	2.0	3390229	3392270	ShowFixation	ANTI	45	2	False	red	40	[1350 1830  405  675]	[ 90 570 405 675]
304.557	0.2	3392270	3392505	BlankScreen	ANTI	45	2	False	red	40	[1350 1830  405  675]	[ 90 570 405 675]
304.792	1.0	3392505	3393505	ELCue	ANTI	45	2	False	red	40	[1350 1830  405  675]	[ 90 570 405 675]
306.201	2.0	3393914	3395940	ShowFixation	VGS	46	2	False	lime	40	[ 90 570 405 675]	[1350 1830  405  675]
308.227	0.2	3395940	3396176	BlankScreen	VGS	46	2	False	lime	40	[ 90 570 405 675]	[1350 1830  405  675]
308.463	1.0	3396176	3397176	ELCue	VGS	46	2	False	lime	40	[ 90 570 405 675]	[1350 1830  405  675]
309.872	2.0	3397585	3399611	ShowFixation	VGS	47	2	False	lime	600	[1350 1830  405  675]	[ 90 570 405 675]
311.898	0.2	3399611	3399846	BlankScreen	VGS	47	2	False	lime	600	[1350 1830  405  675]	[ 90 570 405 675]
312.133	1.0	3399846	3400846	ELCue	VGS	47	2	False	lime	600	[1350 1830  405  675]	[ 90 570 405 675]
313.543	6.0	3401256	3407281	ShowFixation	VGS	48	2	False	lime	180	[405 885 405 675]	[1035 1515  405  675]
319.568	0.2	3407281	3407520	BlankScreen	VGS	48	2	False	lime	180	[405 885 405 675]	[1035 1515  405  675]
319.807	1.0	3407520	3408520	ELCue	VGS	48	2	False	lime	180	[405 885 405 675]	[1035 1515  405  675]
337.634	6.0	3425347	3431388	ShowFixation	VGS	49	3	False	lime	600	[1350 1830  405  675]	[ 90 570 405 675]
343.675	0.2	3431388	3431627	BlankScreen	VGS	49	3	False	lime	600	[1350 1830  405  675]	[ 90 570 405 675]
343.914	1.0	3431627	3432627	ELCue	VGS	49	3	False	lime	600	[1350 1830  405  675]	[ 90 570 405 675]
345.322	2.0	3433035	3435062	ShowFixation	ANTI	50	3	False	red	180	[1035 1515  405  675]	[405 885 405 675]
347.349	0.2	3435062	3435298	BlankScreen	ANTI	50	3	False	red	180	[1035 1515  405  675]	[405 885 405 675]
347.585	1.0	3435298	3436298	ELCue	ANTI	50	3	False	red	180	[1035 1515  405  675]	[405 885 405 675]
348.991	6.0	3436704	3442733	ShowFixation	ANTI	51	3	False	red	600	[ 90 570 405 675]	[1350 1830  405  675]
355.02	0.2	3442733	3442972	BlankScreen	ANTI	51	3	False	red	600	[ 90 570 405 675]	[1350 1830  405  675]
355.259	1.0	3442972	3443972	ELCue	ANTI	51	3	False	red	600	[ 90 570 405 675]	[1350 1830  405  675]
356.669	2.0	3444382	3446407	ShowFixation	ANTI	52	3	False	red	180	[1035 1515  405  675]	[405 885 405 675]
358.694	0.2	3446407	3446642	BlankScreen	ANTI	52	3	False	red	180	[1035 1515  405  675]	[405 885 405 675]
358.929	1.0	3446642	3447642	ELCue	ANTI	52	3	False	red	180	[1035 1515  405  675]	[405 885 405 675]
360.303	6.0	3448016	3454044	ShowFixation	ANTI	53	3	False	red	180	[1035 1515  405  675]	[405 885 405 675]
366.331	0.2	3454044	3454283	BlankScreen	ANTI	53	3	False	red	180	[1035 1515  405  675]	[405 885 405 675]
366.57	1.0	3454283	3455283	ELCue	ANTI	53	3	False	red	180	[1035 1515  405  675]	[405 885 405 675]
367.955	2.0	3455668	3457701	ShowFixation	VGS	54	3	False	lime	40	[ 90 570 405 675]	[1350 1830  405  675]
369.988	0.2	3457701	3457937	BlankScreen	VGS	54	3	False	lime	40	[ 90 570 405 675]	[1350 1830  405  675]
370.224	1.0	3457937	3458937	ELCue	VGS	54	3	False	lime	40	[ 90 570 405 675]	[1350 1830  405  675]
371.592	6.0	3459305	3465339	ShowFixation	VGS	55	3	False	lime	180	[405 885 405 675]	[1035 1515  405  675]
377.626	0.2	3465339	3465578	BlankScreen	VGS	55	3	False	lime	180	[405 885 405 675]	[1035 1515  405  675]
377.866	1.0	3465579	3466579	ELCue	VGS	55	3	False	lime	180	[405 885 405 675]	[1035 1515  405  675]
379.274	6.0	3466987	3473013	ShowFixation	ANTI	56	3	False	red	40	[1350 1830  405  675]	[ 90 570 405 675]
385.3	0.2	3473013	3473253	BlankScreen	ANTI	56	3	False	red	40	[1350 1830  405  675]	[ 90 570 405 675]
385.54	1.0	3473253	3474253	ELCue	ANTI	56	3	False	red	40	[1350 1830  405  675]	[ 90 570 405 675]
386.947	2.0	3474660	3476688	ShowFixation	VGS	57	3	False	lime	180	[405 885 405 675]	[1035 1515  405  675]
388.975	0.2	3476688	3476923	BlankScreen	VGS	57	3	False	lime	180	[405 885 405 675]	[1035 1515  405  675]
389.21	1.0	3476923	3477923	ELCue	VGS	57	3	False	lime	180	[405 885 405 675]	[1035 1515  405  675]
390.622	2.0	3478335	3480375	ShowFixation	VGS	58	3	False	lime	180	[405 885 405 675]	[1035 1515  405  675]
392.662	0.2	3480375	3480610	BlankScreen	VGS	58	3	False	lime	180	[405 885 405 675]	[1035 1515  405  675]
392.897	1.0	3480610	3481610	ELCue	VGS	58	3	False	lime	180	[405 885 405 675]	[1035 1515  405  675]
394.307	6.0	3482020	3488045	ShowFixation	VGS	59	3	False	lime	600	[1350 1830  405  675]	[ 90 570 405 675]
400.332	0.2	3488045	3488284	BlankScreen	VGS	59	3	False	lime	600	[1350 1830  405  675]	[ 90 570 405 675]
400.571	1.0	3488284	3489284	ELCue	VGS	59	3	False	lime	600	[1350 1830  405  675]	[ 90 570 405 675]
401.976	6.0	3489689	3495719	ShowFixation	VGS	60	3	False	lime	180	[405 885 405 675]	[1035 1515  405  675]
408.006	0.2	3495719	3495958	BlankScreen	VGS	60	3	False	lime	180	[405 885 405 675]	[1035 1515  405  675]
408.245	1.0	3495958	3496958	ELCue	VGS	60	3	False	lime	180	[405 885 405 675]	[1035 1515  405  675]
409.65	6.0	3497363	3503393	ShowFixation	ANTI	61	3	False	red	600	[ 90 570 405 675]	[1350 1830  405  675]
415.68	0.2	3503393	3503633	BlankScreen	ANTI	61	3	False	red	600	[ 90 570 405 675]	[1350 1830  405  675]
415.92	1.0	3503633	3504633	ELCue	ANTI	61	3	False	red	600	[ 90 570 405 675]	[1350 1830  405  675]
417.326	2.0	3505039	3507068	ShowFixation	ANTI	62	3	False	red	460	[405 885 405 675]	[1035 1515  405  675]
419.355	0.2	3507068	3507303	BlankScreen	ANTI	62	3	False	red	460	[405 885 405 675]	[1035 1515  405  675]
419.59	1.0	3507303	3508303	ELCue	ANTI	62	3	False	red	460	[405 885 405 675]	[1035 1515  405  675]
420.996	6.0	3508709	3514738	ShowFixation	ANTI	63	3	False	red	40	[1350 1830  405  675]	[ 90 570 405 675]
427.025	0.2	3514738	3514977	BlankScreen	ANTI	63	3	False	red	40	[1350 1830  405  675]	[ 90 570 405 675]
427.264	1.0	3514977	3515977	ELCue	ANTI	63	3	False	red	40	[1350 1830  405  675]	[ 90 570 405 675]
428.666	2.0	3516379	3518412	ShowFixation	ANTI	64	3	False	red	40	[1350 1830  405  675]	[ 90 570 405 675]
430.699	0.2	3518412	3518648	BlankScreen	ANTI	64	3	False	red	40	[1350 1830  405  675]	[ 90 570 405 675]
430.935	1.0	3518648	3519648	ELCue	ANTI	64	3	False	red	40	[1350 1830  405  675]	[ 90 570 405 675]
432.327	6.0	3520040	3526066	ShowFixation	VGS	65	3	False	lime	460	[1035 1515  405  675]	[405 885 405 675]
438.353	0.2	3526066	3526305	BlankScreen	VGS	65	3	False	lime	460	[1035 1515  405  675]	[405 885 405 675]
438.592	1.0	3526305	3527305	ELCue	VGS	65	3	False	lime	460	[1035 1515  405  675]	[405 885 405 675]
439.999	2.0	3527712	3529740	ShowFixation	ANTI	66	3	False	red	460	[405 885 405 675]	[1035 1515  405  675]
442.027	0.2	3529740	3529975	BlankScreen	ANTI	66	3	False	red	460	[405 885 405 675]	[1035 1515  405  675]
442.262	1.0	3529975	3530975	ELCue	ANTI	66	3	False	red	460	[405 885 405 675]	[1035 1515  405  675]
443.672	6.0	3531385	3537410	ShowFixation	VGS	67	3	False	lime	460	[1035 1515  405  675]	[405 885 405 675]
449.697	0.2	3537410	3537650	BlankScreen	VGS	67	3	False	lime	460	[1035 1515  405  675]	[405 885 405 675]
449.937	1.0	3537650	3538650	ELCue	VGS	67	3	False	lime	460	[1035 1515  405  675]	[405 885 405 675]
451.344	6.0	3539057	3545085	ShowFixation	ANTI	68	3	False	red	180	[1035 1515  405  675]	[405 885 405 675]
457.372	0.2	3545085	3545324	BlankScreen	ANTI	68	3	False	red	180	[1035 1515  405  675]	[405 885 405 675]
457.611	1.0	3545324	3546324	ELCue	ANTI	68	3	False	red	180	[1035 1515  405  675]	[405 885 405 675]
459.019	2.0	3546732	3548759	ShowFixation	VGS	69	3	False	lime	460	[1035 1515  405  675]	[405 885 405 675]
461.046	0.2	3548759	3548994	BlankScreen	VGS	69	3	False	lime	460	[1035 1515  405  675]	[405 885 405 675]
461.281	1.0	3548994	3549994	ELCue	VGS	69	3	False	lime	460	[1035 1515  405  675]	[405 885 405 675]
462.687	2.0	3550400	3552429	ShowFixation	VGS	70	3	False	lime	460	[1035 1515  405  675]	[405 885 405 675]
464.716	0.2	3552429	3552664	BlankScreen	VGS	70	3	False	lime	460	[1035 1515  405  675]	[405 885 405 675]
464.951	1.0	3552664	3553664	ELCue	VGS	70	3	False	lime	460	[1035 1515  405  675]	[405 885 405 675]
466.324	6.0	3554037	3560066	ShowFixation	VGS	71	3	False	lime	40	[ 90 570 405 675]	[1350 1830  405  675]
472.353	0.2	3560066	3560305	BlankScreen	VGS	71	3	False	lime	40	[ 90 570 405 675]	[1350 1830  405  675]
472.592	1.0	3560305	3561305	ELCue	VGS	71	3	False	lime	40	[ 90 570 405 675]	[1350 1830  405  675]
474.0	6.0	3561713	3567740	ShowFixation	ANTI	72	3	False	red	460	[405 885 405 675]	[1035 1515  405  675]
480.028	0.2	3567741	3567980	BlankScreen	ANTI	72	3	False	red	460	[405 885 405 675]	[1035 1515  405  675]
480.267	1.0	3567980	3568980	ELCue	ANTI	72	3	False	red	460	[405 885 405 675]	[1035 1515  405  675]
481.679	2.0	3569392	3571431	ShowFixation	VGS	73	3	False	lime	600	[1350 1830  405  675]	[ 90 570 405 675]
483.719	0.2	3571432	3571667	BlankScreen	VGS	73	3	False	lime	600	[1350 1830  405  675]	[ 90 570 405 675]
483.955	1.0	3571668	3572668	ELCue	VGS	73	3	False	lime	600	[1350 1830  405  675]	[ 90 570 405 675]
485.365	2.0	3573078	3575102	ShowFixation	ANTI	74	3	False	red	40	[1350 1830  405  675]	[ 90 570 405 675]
487.389	0.2	3575102	3575338	BlankScreen	ANTI	74	3	False	red	40	[1350 1830  405  675]	[ 90 570 405 675]
487.625	1.0	3575338	3576338	ELCue	ANTI	74	3	False	red	40	[1350 1830  405  675]	[ 90 570 405 675]
489.034	6.0	3576747	3582773	ShowFixation	VGS	75	3	False	lime	40	[ 90 570 405 675]	[1350 1830  405  675]
495.06	0.2	3582773	3583012	BlankScreen	VGS	75	3	False	lime	40	[ 90 570 405 675]	[1350 1830  405  675]
495.299	1.0	3583012	3584012	ELCue	VGS	75	3	False	lime	40	[ 90 570 405 675]	[1350 1830  405  675]
496.694	2.0	3584407	3586447	ShowFixation	ANTI	76	3	False	red	600	[ 90 570 405 675]	[1350 1830  405  675]
498.734	0.2	3586447	3586682	BlankScreen	ANTI	76	3	False	red	600	[ 90 570 405 675]	[1350 1830  405  675]
498.969	1.0	3586682	3587682	ELCue	ANTI	76	3	False	red	600	[ 90 570 405 675]	[1350 1830  405  675]
500.36	2.0	3588073	3590101	ShowFixation	ANTI	77	3	False	red	600	[ 90 570 405 675]	[1350 1830  405  675]
502.388	0.2	3590101	3590336	BlankScreen	ANTI	77	3	False	red	600	[ 90 570 405 675]	[1350 1830  405  675]
502.623	1.0	3590336	3591336	ELCue	ANTI	77	3	False	red	600	[ 90 570 405 675]	[1350 1830  405  675]
504.026	2.0	3591739	3593771	ShowFixation	VGS	78	3	False	lime	40	[ 90 570 405 675]	[1350 1830  405  675]
506.058	0.2	3593771	3594006	BlankScreen	VGS	78	3	False	lime	40	[ 90 570 405 675]	[1350 1830  405  675]
506.293	1.0	3594006	3595006	ELCue	VGS	78	3	False	lime	40	[ 90 570 405 675]	[1350 1830  405  675]
507.699	2.0	3595412	3597441	ShowFixation	VGS	79	3	False	lime	600	[1350 1830  405  675]	[ 90 570 405 675]
509.728	0.2	3597441	3597677	BlankScreen	VGS	79	3	False	lime	600	[1350 1830  405  675]	[ 90 570 405 675]
509.964	1.0	3597677	3598677	ELCue	VGS	79	3	False	lime	600	[1350 1830  405  675]	[ 90 570 405 675]
511.368	6.0	3599081	3605111	ShowFixation	ANTI	80	3	False	red	460	[405 885 405 675]	[1035 1515  405  675]
517.398	0.2	3605111	3605351	BlankScreen	ANTI	80	3	False	red	460	[405 885 405 675]	[1035 1515  405  675]
517.638	1.0	3605351	3606351	ELCue	ANTI	80	3	False	red	460	[405 885 405 675]	[1035 1515  405  675]
538.089	6.0	3625802	3631838	ShowFixation	ANTI	81	4	False	red	600	[ 90 570 405 675]	[1350 1830  405  675]
544.125	0.2	3631838	3632077	BlankScreen	ANTI	81	4	False	red	600	[ 90 570 405 675]	[1350 1830  405  675]
544.364	1.0	3632077	3633077	ELCue	ANTI	81	4	False	red	600	[ 90 570 405 675]	[1350 1830  405  675]
545.771	2.0	3633484	3635512	ShowFixation	ANTI	82	4	False	red	180	[1035 1515  405  675]	[405 885 405 675]
547.799	0.2	3635512	3635747	BlankScreen	ANTI	82	4	False	red	180	[1035 1515  405  675]	[405 885 405 675]
548.034	1.0	3635747	3636747	ELCue	ANTI	82	4	False	red	180	[1035 1515  405  675]	[405 885 405 675]
549.443	2.0	3637156	3639182	ShowFixation	VGS	83	4	False	lime	40	[ 90 570 405 675]	[1350 1830  405  675]
551.469	0.2	3639182	3639418	BlankScreen	VGS	83	4	False	lime	40	[ 90 570 405 675]	[1350 1830  405  675]
551.705	1.0	3639418	3640418	ELCue	VGS	83	4	False	lime	40	[ 90 570 405 675]	[1350 1830  405  675]
553.114	2.0	3640827	3642853	ShowFixation	VGS	84	4	False	lime	600	[1350 1830  405  675]	[ 90 570 405 675]
555.14	0.2	3642853	3643088	BlankScreen	VGS	84	4	False	lime	600	[1350 1830  405  675]	[ 90 570 405 675]
555.375	1.0	3643088	3644088	ELCue	VGS	84	4	False	lime	600	[1350 1830  405  675]	[ 90 570 405 675]
556.768	2.0	3644481	3646506	ShowFixation	ANTI	85	4	False	red	460	[405 885 405 675]	[1035 1515  405  675]
558.793	0.2	3646506	3646742	BlankScreen	ANTI	85	4	False	red	460	[405 885 405 675]	[1035 1515  405  675]
559.029	1.0	3646742	3647742	ELCue	ANTI	85	4	False	red	460	[405 885 405 675]	[1035 1515  405  675]
560.434	6.0	3648147	3654177	ShowFixation	VGS	86	4	False	lime	460	[1035 1515  405  675]	[405 885 405 675]
566.464	0.2	3654177	3654416	BlankScreen	VGS	86	4	False	lime	460	[1035 1515  405  675]	[405 885 405 675]
566.703	1.0	3654416	3655416	ELCue	VGS	86	4	False	lime	460	[1035 1515  405  675]	[405 885 405 675]
568.114	6.0	3655827	3661867	ShowFixation	VGS	87	4	False	lime	600	[1350 1830  405  675]	[ 90 570 405 675]
574.154	0.2	3661867	3662107	BlankScreen	VGS	87	4	False	lime	600	[1350 1830  405  675]	[ 90 570 405 675]
574.394	1.0	3662107	3663107	ELCue	VGS	87	4	False	lime	600	[1350 1830  405  675]	[ 90 570 405 675]
575.804	6.0	3663517	3669542	ShowFixation	ANTI	88	4	False	red	40	[1350 1830  405  675]	[ 90 570 405 675]
581.829	0.2	3669542	3669781	BlankScreen	ANTI	88	4	False	red	40	[1350 1830  405  675]	[ 90 570 405 675]
582.068	1.0	3669781	3670781	ELCue	ANTI	88	4	False	red	40	[1350 1830  405  675]	[ 90 570 405 675]
583.476	2.0	3671189	3673216	ShowFixation	ANTI	89	4	False	red	40	[1350 1830  405  675]	[ 90 570 405 675]
585.504	0.2	3673217	3673451	BlankScreen	ANTI	89	4	False	red	40	[1350 1830  405  675]	[ 90 570 405 675]
585.739	1.0	3673452	3674452	ELCue	ANTI	89	4	False	red	40	[1350 1830  405  675]	[ 90 570 405 675]
587.145	2.0	3674858	3676887	ShowFixation	VGS	90	4	False	lime	460	[1035 1515  405  675]	[405 885 405 675]
589.174	0.2	3676887	3677122	BlankScreen	VGS	90	4	False	lime	460	[1035 1515  405  675]	[405 885 405 675]
589.41	1.0	3677123	3678123	ELCue	VGS	90	4	False	lime	460	[1035 1515  405  675]	[405 885 405 675]
590.821	2.0	3678534	3680574	ShowFixation	VGS	91	4	False	lime	600	[1350 1830  405  675]	[ 90 570 405 675]
592.861	0.2	3680574	3680810	BlankScreen	VGS	91	4	False	lime	600	[1350 1830  405  675]	[ 90 570 405 675]
593.097	1.0	3680810	3681810	ELCue	VGS	91	4	False	lime	600	[1350 1830  405  675]	[ 90 570 405 675]
594.5	6.0	3682213	3688244	ShowFixation	VGS	92	4	False	lime	600	[1350 1830  405  675]	[ 90 570 405 675]
600.531	0.2	3688244	3688484	BlankScreen	VGS	92	4	False	lime	600	[1350 1830  405  675]	[ 90 570 405 675]
600.771	1.0	3688484	3689484	ELCue	VGS	92	4	False	lime	600	[1350 1830  405  675]	[ 90 570 405 675]
602.165	2.0	3689878	3691919	ShowFixation	ANTI	93	4	False	red	600	[ 90 570 405 675]	[1350 1830  405  675]
604.206	0.2	3691919	3692154	BlankScreen	ANTI	93	4	False	red	600	[ 90 570 405 675]	[1350 1830  405  675]
604.441	1.0	3692154	3693154	ELCue	ANTI	93	4	False	red	600	[ 90 570 405 675]	[1350 1830  405  675]
605.85	6.0	3693563	3699589	ShowFixation	ANTI	94	4	False	red	40	[1350 1830  405  675]	[ 90 570 405 675]
611.876	0.2	3699589	3699828	BlankScreen	ANTI	94	4	False	red	40	[1350 1830  405  675]	[ 90 570 405 675]
612.115	1.0	3699828	3700828	ELCue	ANTI	94	4	False	red	40	[1350 1830  405  675]	[ 90 570 405 675]
613.52	6.0	3701233	3707263	ShowFixation	VGS	95	4	False	lime	180	[405 885 405 675]	[1035 1515  405  675]
619.55	0.2	3707263	3707503	BlankScreen	VGS	95	4	False	lime	180	[405 885 405 675]	[1035 1515  405  675]
619.79	1.0	3707503	3708503	ELCue	VGS	95	4	False	lime	180	[405 885 405 675]	[1035 1515  405  675]
621.195	2.0	3708908	3710937	ShowFixation	ANTI	96	4	False	red	180	[1035 1515  405  675]	[405 885 405 675]
623.224	0.2	3710937	3711173	BlankScreen	ANTI	96	4	False	red	180	[1035 1515  405  675]	[405 885 405 675]
623.46	1.0	3711173	3712173	ELCue	ANTI	96	4	False	red	180	[1035 1515  405  675]	[405 885 405 675]
624.867	2.0	3712580	3714608	ShowFixation	ANTI	97	4	False	red	600	[ 90 570 405 675]	[1350 1830  405  675]
626.895	0.2	3714608	3714843	BlankScreen	ANTI	97	4	False	red	600	[ 90 570 405 675]	[1350 1830  405  675]
627.13	1.0	3714843	3715843	ELCue	ANTI	97	4	False	red	600	[ 90 570 405 675]	[1350 1830  405  675]
628.533	2.0	3716246	3718278	ShowFixation	VGS	98	4	False	lime	180	[405 885 405 675]	[1035 1515  405  675]
630.565	0.2	3718278	3718513	BlankScreen	VGS	98	4	False	lime	180	[405 885 405 675]	[1035 1515  405  675]
630.8	1.0	3718513	3719513	ELCue	VGS	98	4	False	lime	180	[405 885 405 675]	[1035 1515  405  675]
632.208	6.0	3719921	3725948	ShowFixation	ANTI	99	4	False	red	460	[405 885 405 675]	[1035 1515  405  675]
638.235	0.2	3725948	3726188	BlankScreen	ANTI	99	4	False	red	460	[405 885 405 675]	[1035 1515  405  675]
638.475	1.0	3726188	3727188	ELCue	ANTI	99	4	False	red	460	[405 885 405 675]	[1035 1515  405  675]
639.883	2.0	3727596	3729623	ShowFixation	ANTI	100	4	False	red	40	[1350 1830  405  675]	[ 90 570 405 675]
641.91	0.2	3729623	3729858	BlankScreen	ANTI	100	4	False	red	40	[1350 1830  405  675]	[ 90 570 405 675]
642.145	1.0	3729858	3730858	ELCue	ANTI	100	4	False	red	40	[1350 1830  405  675]	[ 90 570 405 675]
643.552	6.0	3731265	3737293	ShowFixation	VGS	101	4	False	lime	180	[405 885 405 675]	[1035 1515  405  675]
649.58	0.2	3737293	3737532	BlankScreen	VGS	101	4	False	lime	180	[405 885 405 675]	[1035 1515  405  675]
649.819	1.0	3737532	3738532	ELCue	VGS	101	4	False	lime	180	[405 885 405 675]	[1035 1515  405  675]
651.225	2.0	3738938	3740967	ShowFixation	VGS	102	4	False	lime	40	[ 90 570 405 675]	[1350 1830  405  675]
653.254	0.2	3740967	3741202	BlankScreen	VGS	102	4	False	lime	40	[ 90 570 405 675]	[1350 1830  405  675]
653.489	1.0	3741202	3742202	ELCue	VGS	102	4	False	lime	40	[ 90 570 405 675]	[1350 1830  405  675]
654.898	6.0	3742611	3748637	ShowFixation	ANTI	103	4	False	red	600	[ 90 570 405 675]	[1350 1830  405  675]
660.924	0.2	3748637	3748877	BlankScreen	ANTI	103	4	False	red	600	[ 90 570 405 675]	[1350 1830  405  675]
661.164	1.0	3748877	3749877	ELCue	ANTI	103	4	False	red	600	[ 90 570 405 675]	[1350 1830  405  675]
662.573	2.0	3750286	3752312	ShowFixation	ANTI	104	4	False	red	460	[405 885 405 675]	[1035 1515  405  675]
664.599	0.2	3752312	3752547	BlankScreen	ANTI	104	4	False	red	460	[405 885 405 675]	[1035 1515  405  675]
664.834	1.0	3752547	3753547	ELCue	ANTI	104	4	False	red	460	[405 885 405 675]	[1035 1515  405  675]
666.244	6.0	3753957	3759982	ShowFixation	ANTI	105	4	False	red	460	[405 885 405 675]	[1035 1515  405  675]
672.269	0.2	3759982	3760221	BlankScreen	ANTI	105	4	False	red	460	[405 885 405 675]	[1035 1515  405  675]
672.508	1.0	3760221	3761221	ELCue	ANTI	105	4	False	red	460	[405 885 405 675]	[1035 1515  405  675]
673.882	2.0	3761595	3763623	ShowFixation	VGS	106	4	False	lime	180	[405 885 405 675]	[1035 1515  405  675]
675.91	0.2	3763623	3763858	BlankScreen	VGS	106	4	False	lime	180	[405 885 405 675]	[1035 1515  405  675]
676.145	1.0	3763858	3764858	ELCue	VGS	106	4	False	lime	180	[405 885 405 675]	[1035 1515  405  675]
677.553	6.0	3765266	3771293	ShowFixation	ANTI	107	4	False	red	180	[1035 1515  405  675]	[405 885 405 675]
683.58	0.2	3771293	3771532	BlankScreen	ANTI	107	4	False	red	180	[1035 1515  405  675]	[405 885 405 675]
683.819	1.0	3771532	3772532	ELCue	ANTI	107	4	False	red	180	[1035 1515  405  675]	[405 885 405 675]
685.227	6.0	3772940	3778967	ShowFixation	VGS	108	4	False	lime	40	[ 90 570 405 675]	[1350 1830  405  675]
691.254	0.2	3778967	3779207	BlankScreen	VGS	108	4	False	lime	40	[ 90 570 405 675]	[1350 1830  405  675]
691.494	1.0	3779207	3780207	ELCue	VGS	108	4	False	lime	40	[ 90 570 405 675]	[1350 1830  405  675]
692.902	2.0	3780615	3782642	ShowFixation	VGS	109	4	False	lime	460	[1035 1515  405  675]	[405 885 405 675]
694.93	0.2	3782643	3782877	BlankScreen	VGS	109	4	False	lime	460	[1035 1515  405  675]	[405 885 405 675]
695.164	1.0	3782877	3783877	ELCue	VGS	109	4	False	lime	460	[1035 1515  405  675]	[405 885 405 675]
696.57	6.0	3784283	3790312	ShowFixation	ANTI	110	4	False	red	180	[1035 1515  405  675]	[405 885 405 675]
702.6	0.2	3790313	3790551	BlankScreen	ANTI	110	4	False	red	180	[1035 1515  405  675]	[405 885 405 675]
702.838	1.0	3790551	3791551	ELCue	ANTI	110	4	False	red	180	[1035 1515  405  675]	[405 885 405 675]
704.258	6.0	3791971	3798004	ShowFixation	VGS	111	4	False	lime	40	[ 90 570 405 675]	[1350 1830  405  675]
710.291	0.2	3798004	3798243	BlankScreen	VGS	111	4	False	lime	40	[ 90 570 405 675]	[1350 1830  405  675]
710.53	1.0	3798243	3799243	ELCue	VGS	111	4	False	lime	40	[ 90 570 405 675]	[1350 1830  405  675]
711.938	6.0	3799651	3805678	ShowFixation	VGS	112	4	False	lime	460	[1035 1515  405  675]	[405 885 405 675]
717.965	0.2	3805678	3805917	BlankScreen	VGS	112	4	False	lime	460	[1035 1515  405  675]	[405 885 405 675]
718.204	1.0	3805917	3806917	ELCue	VGS	112	4	False	lime	460	[1035 1515  405  675]	[405 885 405 675]
