onset	duration	startTime	stopTime	eventIdentifier	trial_type	trial_number	block_number	is_practice	fixation_color	cue_side	aoi_correct	aoi_incorrect
0.152	6.0	3744718	3750753	ShowFixation	VGS	1	1	True	lime	180	[405 885 405 675]	[1035 1515  405  675]
6.187	0.2	3750753	3750993	BlankScreen	VGS	1	1	True	lime	180	[405 885 405 675]	[1035 1515  405  675]
6.427	1.0	3750993	3752033	ELCue	VGS	1	1	True	lime	180	[405 885 405 675]	[1035 1515  405  675]
7.888	6.0	3752454	3759078	ShowFixation	ANTI	2	1	True	red	40	[1350 1830  405  675]	[ 90 570 405 675]
14.512	0.2	3759078	3759317	BlankScreen	ANTI	2	1	True	red	40	[1350 1830  405  675]	[ 90 570 405 675]
14.751	1.0	3759317	3760358	ELCue	ANTI	2	1	True	red	40	[1350 1830  405  675]	[ 90 570 405 675]
16.174	6.0	3760740	3767403	ShowFixation	VGS	3	1	True	lime	460	[1035 1515  405  675]	[405 885 405 675]
22.837	0.2	3767403	3767643	BlankScreen	VGS	3	1	True	lime	460	[1035 1515  405  675]	[405 885 405 675]
23.077	1.0	3767643	3768683	ELCue	VGS	3	1	True	lime	460	[1035 1515  405  675]	[405 885 405 675]
24.533	2.0	3769099	3771711	ShowFixation	VGS	4	1	True	lime	40	[ 90 570 405 675]	[1350 1830  405  675]
27.145	0.2	3771711	3771931	BlankScreen	VGS	4	1	True	lime	40	[ 90 570 405 675]	[1350 1830  405  675]
27.365	1.0	3771931	3772954	ELCue	VGS	4	1	True	lime	40	[ 90 570 405 675]	[1350 1830  405  675]
28.806	2.0	3773372	3775999	ShowFixation	ANTI	5	1	True	red	600	[ 90 570 405 675]	[1350 1830  405  675]
31.434	0.2	3776000	3776235	BlankScreen	ANTI	5	1	True	red	600	[ 90 570 405 675]	[1350 1830  405  675]
31.669	1.0	3776235	3777275	ELCue	ANTI	5	1	True	red	600	[ 90 570 405 675]	[1350 1830  405  675]
33.092	6.0	3777658	3784304	ShowFixation	ANTI	6	1	True	red	460	[405 885 405 675]	[1035 1515  405  675]
39.738	0.2	3784304	3784543	BlankScreen	ANTI	6	1	True	red	460	[405 885 405 675]	[1035 1515  405  675]
39.977	1.0	3784543	3785583	ELCue	ANTI	6	1	True	red	460	[405 885 405 675]	[1035 1515  405  675]
41.44	6.0	3786006	3792629	ShowFixation	ANTI	7	1	True	red	180	[1035 1515  405  675]	[405 885 405 675]
48.063	0.2	3792629	3792868	BlankScreen	ANTI	7	1	True	red	180	[1035 1515  405  675]	[405 885 405 675]
48.302	1.0	3792868	3793908	ELCue	ANTI	7	1	True	red	180	[1035 1515  405  675]	[405 885 405 675]
49.76	2.0	3794326	3796954	ShowFixation	VGS	8	1	True	lime	460	[1035 1515  405  675]	[405 885 405 675]
52.388	0.2	3796954	3797189	BlankScreen	VGS	8	1	True	lime	460	[1035 1515  405  675]	[405 885 405 675]
52.623	1.0	3797189	3798230	ELCue	VGS	8	1	True	lime	460	[1035 1515  405  675]	[405 885 405 675]
54.063	2.0	3798629	3801275	ShowFixation	ANTI	9	1	True	red	40	[1350 1830  405  675]	[ 90 570 405 675]
56.709	0.2	3801275	3801510	BlankScreen	ANTI	9	1	True	red	40	[1350 1830  405  675]	[ 90 570 405 675]
56.944	1.0	3801510	3802550	ELCue	ANTI	9	1	True	red	40	[1350 1830  405  675]	[ 90 570 405 675]
58.397	2.0	3802963	3805596	ShowFixation	ANTI	10	1	True	red	180	[1035 1515  405  675]	[405 885 405 675]
61.03	0.2	3805596	3805831	BlankScreen	ANTI	10	1	True	red	180	[1035 1515  405  675]	[405 885 405 675]
61.265	1.0	3805831	3806871	ELCue	ANTI	10	1	True	red	180	[1035 1515  405  675]	[405 885 405 675]
62.723	6.0	3807289	3813900	ShowFixation	ANTI	11	1	True	red	600	[ 90 570 405 675]	[1350 1830  405  675]
69.334	0.2	3813900	3814139	BlankScreen	ANTI	11	1	True	red	600	[ 90 570 405 675]	[1350 1830  405  675]
69.573	1.0	3814139	3815179	ELCue	ANTI	11	1	True	red	600	[ 90 570 405 675]	[1350 1830  405  675]
71.029	2.0	3815595	3818208	ShowFixation	VGS	12	1	True	lime	600	[1350 1830  405  675]	[ 90 570 405 675]
73.642	0.2	3818208	3818427	BlankScreen	VGS	12	1	True	lime	600	[1350 1830  405  675]	[ 90 570 405 675]
73.861	1.0	3818427	3819450	ELCue	VGS	12	1	True	lime	600	[1350 1830  405  675]	[ 90 570 405 675]
75.297	6.0	3819863	3826496	ShowFixation	VGS	13	1	True	lime	40	[ 90 570 405 675]	[1350 1830  405  675]
81.93	0.2	3826496	3826735	BlankScreen	VGS	13	1	True	lime	40	[ 90 570 405 675]	[1350 1830  405  675]
82.169	1.0	3826735	3827775	ELCue	VGS	13	1	True	lime	40	[ 90 570 405 675]	[1350 1830  405  675]
83.625	6.0	3828191	3834821	ShowFixation	VGS	14	1	True	lime	600	[1350 1830  405  675]	[ 90 570 405 675]
90.255	0.2	3834821	3835060	BlankScreen	VGS	14	1	True	lime	600	[1350 1830  405  675]	[ 90 570 405 675]
90.494	1.0	3835060	3836100	ELCue	VGS	14	1	True	lime	600	[1350 1830  405  675]	[ 90 570 405 675]
91.947	2.0	3836513	3839145	ShowFixation	VGS	15	1	True	lime	180	[405 885 405 675]	[1035 1515  405  675]
94.579	0.2	3839145	3839381	BlankScreen	VGS	15	1	True	lime	180	[405 885 405 675]	[1035 1515  405  675]
94.815	1.0	3839381	3840421	ELCue	VGS	15	1	True	lime	180	[405 885 405 675]	[1035 1515  405  675]
96.271	2.0	3840837	3843450	ShowFixation	ANTI	16	1	True	red	460	[405 885 405 675]	[1035 1515  405  675]
98.884	0.2	3843450	3843668	BlankScreen	ANTI	16	1	True	red	460	[405 885 405 675]	[1035 1515  405  675]
99.102	1.0	3843668	3844692	ELCue	ANTI	16	1	True	red	460	[405 885 405 675]	[1035 1515  405  675]
130.257	6.0	3874823	3880849	ShowFixation	VGS	17	2	False	lime	180	[405 885 405 675]	[1035 1515  405  675]
136.283	0.2	3880849	3881089	BlankScreen	VGS	17	2	False	lime	180	[405 885 405 675]	[1035 1515  405  675]
136.523	1.0	3881089	3882089	ELCue	VGS	17	2	False	lime	180	[405 885 405 675]	[1035 1515  405  675]
137.942	2.0	3882508	3884540	ShowFixation	VGS	18	2	False	lime	460	[1035 1515  405  675]	[405 885 405 675]
139.974	0.2	3884540	3884776	BlankScreen	VGS	18	2	False	lime	460	[1035 1515  405  675]	[405 885 405 675]
140.21	1.0	3884776	3885776	ELCue	VGS	18	2	False	lime	460	[1035 1515  405  675]	[405 885 405 675]
141.629	6.0	3886195	3892227	ShowFixation	ANTI	19	2	False	red	180	[1035 1515  405  675]	[405 885 405 675]
147.661	0.2	3892227	3892466	BlankScreen	ANTI	19	2	False	red	180	[1035 1515  405  675]	[405 885 405 675]
147.9	1.0	3892466	3893466	ELCue	ANTI	19	2	False	red	180	[1035 1515  405  675]	[405 885 405 675]
149.318	6.0	3893884	3899918	ShowFixation	VGS	20	2	False	lime	180	[405 885 405 675]	[1035 1515  405  675]
155.352	0.2	3899918	3900157	BlankScreen	VGS	20	2	False	lime	180	[405 885 405 675]	[1035 1515  405  675]
155.591	1.0	3900157	3901157	ELCue	VGS	20	2	False	lime	180	[405 885 405 675]	[1035 1515  405  675]
156.984	2.0	3901550	3903577	ShowFixation	ANTI	21	2	False	red	40	[1350 1830  405  675]	[ 90 570 405 675]
159.011	0.2	3903577	3903811	BlankScreen	ANTI	21	2	False	red	40	[1350 1830  405  675]	[ 90 570 405 675]
159.245	1.0	3903811	3904811	ELCue	ANTI	21	2	False	red	40	[1350 1830  405  675]	[ 90 570 405 675]
160.634	2.0	3905200	3907230	ShowFixation	ANTI	22	2	False	red	600	[ 90 570 405 675]	[1350 1830  405  675]
162.664	0.2	3907230	3907466	BlankScreen	ANTI	22	2	False	red	600	[ 90 570 405 675]	[1350 1830  405  675]
162.9	1.0	3907466	3908466	ELCue	ANTI	22	2	False	red	600	[ 90 570 405 675]	[1350 1830  405  675]
164.321	6.0	3908887	3914917	ShowFixation	VGS	23	2	False	lime	40	[ 90 570 405 675]	[1350 1830  405  675]
170.351	0.2	3914917	3915157	BlankScreen	VGS	23	2	False	lime	40	[ 90 570 405 675]	[1350 1830  405  675]
170.591	1.0	3915157	3916157	ELCue	VGS	23	2	False	lime	40	[ 90 570 405 675]	[1350 1830  405  675]
172.012	6.0	3916578	3922608	ShowFixation	ANTI	24	2	False	red	40	[1350 1830  405  675]	[ 90 570 405 675]
178.042	0.2	3922608	3922847	BlankScreen	ANTI	24	2	False	red	40	[1350 1830  405  675]	[ 90 570 405 675]
178.281	1.0	3922847	3923847	ELCue	ANTI	24	2	False	red	40	[1350 1830  405  675]	[ 90 570 405 675]
179.688	6.0	3924254	3930281	ShowFixation	VGS	25	2	False	lime	40	[ 90 570 405 675]	[1350 1830  405  675]
185.716	0.2	3930282	3930521	BlankScreen	VGS	25	2	False	lime	40	[ 90 570 405 675]	[1350 1830  405  675]
185.955	1.0	3930521	3931521	ELCue	VGS	25	2	False	lime	40	[ 90 570 405 675]	[1350 1830  405  675]
187.376	6.0	3931942	3937973	ShowFixation	ANTI	26	2	False	red	600	[ 90 570 405 675]	[1350 1830  405  675]
193.407	0.2	3937973	3938213	BlankScreen	ANTI	26	2	False	red	600	[ 90 570 405 675]	[1350 1830  405  675]
193.647	1.0	3938213	3939213	ELCue	ANTI	26	2	False	red	600	[ 90 570 405 675]	[1350 1830  405  675]
195.066	2.0	3939632	3941664	ShowFixation	VGS	27	2	False	lime	40	[ 90 570 405 675]	[1350 1830  405  675]
197.098	0.2	3941664	3941900	BlankScreen	VGS	27	2	False	lime	40	[ 90 570 405 675]	[1350 1830  405  675]
197.334	1.0	3941900	3942900	ELCue	VGS	27	2	False	lime	40	[ 90 570 405 675]	[1350 1830  405  675]
198.749	6.0	3943315	3949351	ShowFixation	VGS	28	2	False	lime	460	[1035 1515  405  675]	[405 885 405 675]
204.785	0.2	3949351	3949590	BlankScreen	VGS	28	2	False	lime	460	[1035 1515  405  675]	[405 885 405 675]
205.024	1.0	3949590	3950590	ELCue	VGS	28	2	False	lime	460	[1035 1515  405  675]	[405 885 405 675]
206.427	2.0	3950993	3953025	ShowFixation	VGS	29	2	False	lime	40	[ 90 570 405 675]	[1350 1830  405  675]
208.459	0.2	3953025	3953261	BlankScreen	VGS	29	2	False	lime	40	[ 90 570 405 675]	[1350 1830  405  675]
208.695	1.0	3953261	3954261	ELCue	VGS	29	2	False	lime	40	[ 90 570 405 675]	[1350 1830  405  675]
210.115	6.0	3954681	3960712	ShowFixation	ANTI	30	2	False	red	460	[405 885 405 675]	[1035 1515  405  675]
216.146	0.2	3960712	3960952	BlankScreen	ANTI	30	2	False	red	460	[405 885 405 675]	[1035 1515  405  675]
216.386	1.0	3960952	3961952	ELCue	ANTI	30	2	False	red	460	[405 885 405 675]	[1035 1515  405  675]
217.77	2.0	3962336	3964370	ShowFixation	ANTI	31	2	False	red	180	[1035 1515  405  675]	[405 885 405 675]
219.804	0.2	3964370	3964605	BlankScreen	ANTI	31	2	False	red	180	[1035 1515  405  675]	[405 885 405 675]
220.039	1.0	3964605	3965605	ELCue	ANTI	31	2	False	red	180	[1035 1515  405  675]	[405 885 405 675]
221.456	2.0	3966022	3968057	ShowFixation	VGS	32	2	False	lime	600	[1350 1830  405  675]	[ 90 570 405 675]
223.491	0.2	3968057	3968292	BlankScreen	VGS	32	2	False	lime	600	[1350 1830  405  675]	[ 90 570 405 675]
223.726	1.0	3968292	3969292	ELCue	VGS	32	2	False	lime	600	[1350 1830  405  675]	[ 90 570 405 675]
225.142	2.0	3969708	3971744	ShowFixation	VGS	33	2	False	lime	180	[405 885 405 675]	[1035 1515  405  675]
227.178	0.2	3971744	3971979	BlankScreen	VGS	33	2	False	lime	180	[405 885 405 675]	[1035 1515  405  675]
227.413	1.0	3971979	3972979	ELCue	VGS	33	2	False	lime	180	[405 885 405 675]	[1035 1515  405  675]
228.812	6.0	3973378	3979414	ShowFixation	ANTI	34	2	False	red	180	[1035 1515  405  675]	[405 885 405 675]
234.848	0.2	3979414	3979653	BlankScreen	ANTI	34	2	False	red	180	[1035 1515  405  675]	[405 885 405 675]
235.087	1.0	3979653	3980653	ELCue	ANTI	34	2	False	red	180	[1035 1515  405  675]	[405 885 405 675]
236.509	2.0	3981075	3983105	ShowFixation	ANTI	35	2	False	red	460	[405 885 405 675]	[1035 1515  405  675]
238.539	0.2	3983105	3983340	BlankScreen	ANTI	35	2	False	red	460	[405 885 405 675]	[1035 1515  405  675]
238.774	1.0	3983340	3984340	ELCue	ANTI	35	2	False	red	460	[405 885 405 675]	[1035 1515  405  675]
240.178	2.0	3984744	3986775	ShowFixation	ANTI	36	2	False	red	460	[405 885 405 675]	[1035 1515  405  675]
242.209	0.2	3986775	3987011	BlankScreen	ANTI	36	2	False	red	460	[405 885 405 675]	[1035 1515  405  675]
242.445	1.0	3987011	3988011	ELCue	ANTI	36	2	False	red	460	[405 885 405 675]	[1035 1515  405  675]
243.866	2.0	3988432	3990462	ShowFixation	ANTI	37	2	False	red	180	[1035 1515  405  675]	[405 885 405 675]
245.896	0.2	3990462	3990698	BlankScreen	ANTI	37	2	False	red	180	[1035 1515  405  675]	[405 885 405 675]
246.132	1.0	3990698	3991698	ELCue	ANTI	37	2	False	red	180	[1035 1515  405  675]	[405 885 405 675]
247.556	2.0	3992122	3994149	ShowFixation	ANTI	38	2	False	red	40	[1350 1830  405  675]	[ 90 570 405 675]
249.583	0.2	3994149	3994385	BlankScreen	ANTI	38	2	False	red	40	[1350 1830  405  675]	[ 90 570 405 675]
249.819	1.0	3994385	3995385	ELCue	ANTI	38	2	False	red	40	[1350 1830  405  675]	[ 90 570 405 675]
251.242	2.0	3995808	3997836	ShowFixation	VGS	39	2	False	lime	600	[1350 1830  405  675]	[ 90 570 405 675]
253.27	0.2	3997836	3998072	BlankScreen	VGS	39	2	False	lime	600	[1350 1830  405  675]	[ 90 570 405 675]
253.506	1.0	3998072	3999072	ELCue	VGS	39	2	False	lime	600	[1350 1830  405  675]	[ 90 570 405 675]
254.926	2.0	3999492	4001523	ShowFixation	ANTI	40	2	False	red	600	[ 90 570 405 675]	[1350 1830  405  675]
256.957	0.2	4001523	4001758	BlankScreen	ANTI	40	2	False	red	600	[ 90 570 405 675]	[1350 1830  405  675]
257.192	1.0	4001758	4002758	ELCue	ANTI	40	2	False	red	600	[ 90 570 405 675]	[1350 1830  405  675]
258.618	6.0	4003184	4009210	ShowFixation	ANTI	41	2	False	red	40	[1350 1830  405  675]	[ 90 570 405 675]
264.644	0.2	4009210	4009449	BlankScreen	ANTI	41	2	False	red	40	[1350 1830  405  675]	[ 90 570 405 675]
264.883	1.0	4009449	4010449	ELCue	ANTI	41	2	False	red	40	[1350 1830  405  675]	[ 90 570 405 675]
266.306	6.0	4010872	4016901	ShowFixation	ANTI	42	2	False	red	460	[405 885 405 675]	[1035 1515  405  675]
272.335	0.2	4016901	4017140	BlankScreen	ANTI	42	2	False	red	460	[405 885 405 675]	[1035 1515  405  675]
272.574	1.0	4017140	4018140	ELCue	ANTI	42	2	False	red	460	[405 885 405 675]	[1035 1515  405  675]
274.02	6.0	4018586	4024625	ShowFixation	VGS	43	2	False	lime	460	[1035 1515  405  675]	[405 885 405 675]
280.059	0.2	4024625	4024865	BlankScreen	VGS	43	2	False	lime	460	[1035 1515  405  675]	[405 885 405 675]
280.299	1.0	4024865	4025865	ELCue	VGS	43	2	False	lime	460	[1035 1515  405  675]	[405 885 405 675]
281.723	6.0	4026289	4032317	ShowFixation	VGS	44	2	False	lime	600	[1350 1830  405  675]	[ 90 570 405 675]
287.751	0.2	4032317	4032556	BlankScreen	VGS	44	2	False	lime	600	[1350 1830  405  675]	[ 90 570 405 675]
287.99	1.0	4032556	4033556	ELCue	VGS	44	2	False	lime	600	[1350 1830  405  675]	[ 90 570 405 675]
289.414	6.0	4033980	4040008	ShowFixation	ANTI	45	2	False	red	600	[ 90 570 405 675]	[1350 1830  405  675]
295.442	0.2	4040008	4040247	BlankScreen	ANTI	45	2	False	red	600	[ 90 570 405 675]	[1350 1830  405  675]
295.681	1.0	4040247	4041247	ELCue	ANTI	45	2	False	red	600	[ 90 570 405 675]	[1350 1830  405  675]
297.1	2.0	4041666	4043699	ShowFixation	VGS	46	2	False	lime	460	[1035 1515  405  675]	[405 885 405 675]
299.133	0.2	4043699	4043934	BlankScreen	VGS	46	2	False	lime	460	[1035 1515  405  675]	[405 885 405 675]
299.368	1.0	4043934	4044934	ELCue	VGS	46	2	False	lime	460	[1035 1515  405  675]	[405 885 405 675]
300.789	2.0	4045355	4047386	ShowFixation	VGS	47	2	False	lime	180	[405 885 405 675]	[1035 1515  405  675]
302.82	0.2	4047386	4047621	BlankScreen	VGS	47	2	False	lime	180	[405 885 405 675]	[1035 1515  405  675]
303.055	1.0	4047621	4048621	ELCue	VGS	47	2	False	lime	180	[405 885 405 675]	[1035 1515  405  675]
304.478	6.0	4049044	4055073	ShowFixation	VGS	48	2	False	lime	600	[1350 1830  405  675]	[ 90 570 405 675]
310.507	0.2	4055073	4055312	BlankScreen	VGS	48	2	False	lime	600	[1350 1830  405  675]	[ 90 570 405 675]
310.746	1.0	4055312	4056312	ELCue	VGS	48	2	False	lime	600	[1350 1830  405  675]	[ 90 570 405 675]
359.689	6.0	4104255	4110294	ShowFixation	ANTI	49	3	False	red	40	[1350 1830  405  675]	[ 90 570 405 675]
365.728	0.2	4110294	4110533	BlankScreen	ANTI	49	3	False	red	40	[1350 1830  405  675]	[ 90 570 405 675]
365.967	1.0	4110533	4111533	ELCue	ANTI	49	3	False	red	40	[1350 1830  405  675]	[ 90 570 405 675]
367.392	6.0	4111958	4117985	ShowFixation	VGS	50	3	False	lime	600	[1350 1830  405  675]	[ 90 570 405 675]
373.419	0.2	4117985	4118224	BlankScreen	VGS	50	3	False	lime	600	[1350 1830  405  675]	[ 90 570 405 675]
373.658	1.0	4118224	4119224	ELCue	VGS	50	3	False	lime	600	[1350 1830  405  675]	[ 90 570 405 675]
375.058	2.0	4119624	4121659	ShowFixation	VGS	51	3	False	lime	180	[405 885 405 675]	[1035 1515  405  675]
377.093	0.2	4121659	4121895	BlankScreen	VGS	51	3	False	lime	180	[405 885 405 675]	[1035 1515  405  675]
377.329	1.0	4121895	4122895	ELCue	VGS	51	3	False	lime	180	[405 885 405 675]	[1035 1515  405  675]
378.75	6.0	4123316	4129346	ShowFixation	VGS	52	3	False	lime	40	[ 90 570 405 675]	[1350 1830  405  675]
384.78	0.2	4129346	4129585	BlankScreen	VGS	52	3	False	lime	40	[ 90 570 405 675]	[1350 1830  405  675]
385.019	1.0	4129585	4130585	ELCue	VGS	52	3	False	lime	40	[ 90 570 405 675]	[1350 1830  405  675]
386.442	6.0	4131008	4137037	ShowFixation	VGS	53	3	False	lime	40	[ 90 570 405 675]	[1350 1830  405  675]
392.471	0.2	4137037	4137276	BlankScreen	VGS	53	3	False	lime	40	[ 90 570 405 675]	[1350 1830  405  675]
392.71	1.0	4137276	4138276	ELCue	VGS	53	3	False	lime	40	[ 90 570 405 675]	[1350 1830  405  675]
394.128	6.0	4138694	4144728	ShowFixation	VGS	54	3	False	lime	600	[1350 1830  405  675]	[ 90 570 405 675]
400.162	0.2	4144728	4144967	BlankScreen	VGS	54	3	False	lime	600	[1350 1830  405  675]	[ 90 570 405 675]
400.401	1.0	4144967	4145967	ELCue	VGS	54	3	False	lime	600	[1350 1830  405  675]	[ 90 570 405 675]
401.827	6.0	4146393	4152419	ShowFixation	ANTI	55	3	False	red	460	[405 885 405 675]	[1035 1515  405  675]
407.854	0.2	4152420	4152659	BlankScreen	ANTI	55	3	False	red	460	[405 885 405 675]	[1035 1515  405  675]
408.093	1.0	4152659	4153659	ELCue	ANTI	55	3	False	red	460	[405 885 405 675]	[1035 1515  405  675]
409.515	6.0	4154081	4160111	ShowFixation	ANTI	56	3	False	red	180	[1035 1515  405  675]	[405 885 405 675]
415.545	0.2	4160111	4160350	BlankScreen	ANTI	56	3	False	red	180	[1035 1515  405  675]	[405 885 405 675]
415.784	1.0	4160350	4161350	ELCue	ANTI	56	3	False	red	180	[1035 1515  405  675]	[405 885 405 675]
417.207	6.0	4161773	4167802	ShowFixation	VGS	57	3	False	lime	460	[1035 1515  405  675]	[405 885 405 675]
423.236	0.2	4167802	4168041	BlankScreen	VGS	57	3	False	lime	460	[1035 1515  405  675]	[405 885 405 675]
423.475	1.0	4168041	4169041	ELCue	VGS	57	3	False	lime	460	[1035 1515  405  675]	[405 885 405 675]
424.898	2.0	4169464	4171493	ShowFixation	ANTI	58	3	False	red	460	[405 885 405 675]	[1035 1515  405  675]
426.927	0.2	4171493	4171728	BlankScreen	ANTI	58	3	False	red	460	[405 885 405 675]	[1035 1515  405  675]
427.162	1.0	4171728	4172728	ELCue	ANTI	58	3	False	red	460	[405 885 405 675]	[1035 1515  405  675]
428.584	2.0	4173150	4175180	ShowFixation	ANTI	59	3	False	red	40	[1350 1830  405  675]	[ 90 570 405 675]
430.614	0.2	4175180	4175415	BlankScreen	ANTI	59	3	False	red	40	[1350 1830  405  675]	[ 90 570 405 675]
430.849	1.0	4175415	4176415	ELCue	ANTI	59	3	False	red	40	[1350 1830  405  675]	[ 90 570 405 675]
432.27	6.0	4176836	4182867	ShowFixation	ANTI	60	3	False	red	600	[ 90 570 405 675]	[1350 1830  405  675]
438.301	0.2	4182867	4183106	BlankScreen	ANTI	60	3	False	red	600	[ 90 570 405 675]	[1350 1830  405  675]
438.54	1.0	4183106	4184106	ELCue	ANTI	60	3	False	red	600	[ 90 570 405 675]	[1350 1830  405  675]
439.958	2.0	4184524	4186557	ShowFixation	VGS	61	3	False	lime	40	[ 90 570 405 675]	[1350 1830  405  675]
441.991	0.2	4186557	4186793	BlankScreen	VGS	61	3	False	lime	40	[ 90 570 405 675]	[1350 1830  405  675]
442.227	1.0	4186793	4187793	ELCue	VGS	61	3	False	lime	40	[ 90 570 405 675]	[1350 1830  405  675]
443.642	6.0	4188208	4194244	ShowFixation	VGS	62	3	False	lime	180	[405 885 405 675]	[1035 1515  405  675]
449.678	0.2	4194244	4194484	BlankScreen	VGS	62	3	False	lime	180	[405 885 405 675]	[1035 1515  405  675]
449.918	1.0	4194484	4195484	ELCue	VGS	62	3	False	lime	180	[405 885 405 675]	[1035 1515  405  675]
451.337	2.0	4195903	4197935	ShowFixation	ANTI	63	3	False	red	600	[ 90 570 405 675]	[1350 1830  405  675]
453.369	0.2	4197935	4198171	BlankScreen	ANTI	63	3	False	red	600	[ 90 570 405 675]	[1350 1830  405  675]
453.605	1.0	4198171	4199171	ELCue	ANTI	63	3	False	red	600	[ 90 570 405 675]	[1350 1830  405  675]
455.023	6.0	4199589	4205622	ShowFixation	ANTI	64	3	False	red	600	[ 90 570 405 675]	[1350 1830  405  675]
461.056	0.2	4205622	4205862	BlankScreen	ANTI	64	3	False	red	600	[ 90 570 405 675]	[1350 1830  405  675]
461.296	1.0	4205862	4206862	ELCue	ANTI	64	3	False	red	600	[ 90 570 405 675]	[1350 1830  405  675]
462.714	2.0	4207280	4209313	ShowFixation	VGS	65	3	False	lime	180	[405 885 405 675]	[1035 1515  405  675]
464.747	0.2	4209313	4209549	BlankScreen	VGS	65	3	False	lime	180	[405 885 405 675]	[1035 1515  405  675]
464.983	1.0	4209549	4210549	ELCue	VGS	65	3	False	lime	180	[405 885 405 675]	[1035 1515  405  675]
466.403	6.0	4210969	4217000	ShowFixation	ANTI	66	3	False	red	180	[1035 1515  405  675]	[405 885 405 675]
472.434	0.2	4217000	4217239	BlankScreen	ANTI	66	3	False	red	180	[1035 1515  405  675]	[405 885 405 675]
472.673	1.0	4217239	4218239	ELCue	ANTI	66	3	False	red	180	[1035 1515  405  675]	[405 885 405 675]
474.092	2.0	4218658	4220691	ShowFixation	ANTI	67	3	False	red	600	[ 90 570 405 675]	[1350 1830  405  675]
476.125	0.2	4220691	4220926	BlankScreen	ANTI	67	3	False	red	600	[ 90 570 405 675]	[1350 1830  405  675]
476.36	1.0	4220926	4221926	ELCue	ANTI	67	3	False	red	600	[ 90 570 405 675]	[1350 1830  405  675]
477.781	2.0	4222347	4224378	ShowFixation	VGS	68	3	False	lime	460	[1035 1515  405  675]	[405 885 405 675]
479.812	0.2	4224378	4224613	BlankScreen	VGS	68	3	False	lime	460	[1035 1515  405  675]	[405 885 405 675]
480.047	1.0	4224613	4225613	ELCue	VGS	68	3	False	lime	460	[1035 1515  405  675]	[405 885 405 675]
481.45	2.0	4226016	4228048	ShowFixation	ANTI	69	3	False	red	40	[1350 1830  405  675]	[ 90 570 405 675]
483.482	0.2	4228048	4228284	BlankScreen	ANTI	69	3	False	red	40	[1350 1830  405  675]	[ 90 570 405 675]
483.718	1.0	4228284	4229284	ELCue	ANTI	69	3	False	red	40	[1350 1830  405  675]	[ 90 570 405 675]
485.138	2.0	4229704	4231735	ShowFixation	ANTI	70	3	False	red	460	[405 885 405 675]	[1035 1515  405  675]
487.169	0.2	4231735	4231971	BlankScreen	ANTI	70	3	False	red	460	[405 885 405 675]	[1035 1515  405  675]
487.405	1.0	4231971	4232971	ELCue	ANTI	70	3	False	red	460	[405 885 405 675]	[1035 1515  405  675]
488.824	2.0	4233390	4235422	ShowFixation	VGS	71	3	False	lime	460	[1035 1515  405  675]	[405 885 405 675]
490.856	0.2	4235422	4235658	BlankScreen	VGS	71	3	False	lime	460	[1035 1515  405  675]	[405 885 405 675]
491.092	1.0	4235658	4236658	ELCue	VGS	71	3	False	lime	460	[1035 1515  405  675]	[405 885 405 675]
492.51	2.0	4237076	4239109	ShowFixation	ANTI	72	3	False	red	180	[1035 1515  405  675]	[405 885 405 675]
494.543	0.2	4239109	4239345	BlankScreen	ANTI	72	3	False	red	180	[1035 1515  405  675]	[405 885 405 675]
494.779	1.0	4239345	4240345	ELCue	ANTI	72	3	False	red	180	[1035 1515  405  675]	[405 885 405 675]
496.199	6.0	4240765	4246796	ShowFixation	VGS	73	3	False	lime	180	[405 885 405 675]	[1035 1515  405  675]
502.23	0.2	4246796	4247036	BlankScreen	VGS	73	3	False	lime	180	[405 885 405 675]	[1035 1515  405  675]
502.47	1.0	4247036	4248036	ELCue	VGS	73	3	False	lime	180	[405 885 405 675]	[1035 1515  405  675]
503.892	6.0	4248458	4254487	ShowFixation	VGS	74	3	False	lime	460	[1035 1515  405  675]	[405 885 405 675]
509.921	0.2	4254487	4254726	BlankScreen	VGS	74	3	False	lime	460	[1035 1515  405  675]	[405 885 405 675]
510.16	1.0	4254726	4255726	ELCue	VGS	74	3	False	lime	460	[1035 1515  405  675]	[405 885 405 675]
511.584	2.0	4256150	4258178	ShowFixation	VGS	75	3	False	lime	600	[1350 1830  405  675]	[ 90 570 405 675]
513.612	0.2	4258178	4258413	BlankScreen	VGS	75	3	False	lime	600	[1350 1830  405  675]	[ 90 570 405 675]
513.847	1.0	4258413	4259413	ELCue	VGS	75	3	False	lime	600	[1350 1830  405  675]	[ 90 570 405 675]
515.268	2.0	4259834	4261865	ShowFixation	VGS	76	3	False	lime	40	[ 90 570 405 675]	[1350 1830  405  675]
517.299	0.2	4261865	4262100	BlankScreen	VGS	76	3	False	lime	40	[ 90 570 405 675]	[1350 1830  405  675]
517.534	1.0	4262100	4263100	ELCue	VGS	76	3	False	lime	40	[ 90 570 405 675]	[1350 1830  405  675]
518.953	2.0	4263519	4265552	ShowFixation	VGS	77	3	False	lime	600	[1350 1830  405  675]	[ 90 570 405 675]
520.986	0.2	4265552	4265787	BlankScreen	VGS	77	3	False	lime	600	[1350 1830  405  675]	[ 90 570 405 675]
521.221	1.0	4265787	4266787	ELCue	VGS	77	3	False	lime	600	[1350 1830  405  675]	[ 90 570 405 675]
522.646	6.0	4267212	4273239	ShowFixation	ANTI	78	3	False	red	460	[405 885 405 675]	[1035 1515  405  675]
528.673	0.2	4273239	4273479	BlankScreen	ANTI	78	3	False	red	460	[405 885 405 675]	[1035 1515  405  675]
528.913	1.0	4273479	4274479	ELCue	ANTI	78	3	False	red	460	[405 885 405 675]	[1035 1515  405  675]
530.332	2.0	4274898	4276931	ShowFixation	ANTI	79	3	False	red	180	[1035 1515  405  675]	[405 885 405 675]
532.365	0.2	4276931	4277166	BlankScreen	ANTI	79	3	False	red	180	[1035 1515  405  675]	[405 885 405 675]
532.6	1.0	4277166	4278166	ELCue	ANTI	79	3	False	red	180	[1035 1515  405  675]	[405 885 405 675]
534.022	6.0	4278588	4284618	ShowFixation	ANTI	80	3	False	red	40	[1350 1830  405  675]	[ 90 570 405 675]
540.052	0.2	4284618	4284857	BlankScreen	ANTI	80	3	False	red	40	[1350 1830  405  675]	[ 90 570 405 675]
540.291	1.0	4284857	4285857	ELCue	ANTI	80	3	False	red	40	[1350 1830  405  675]	[ 90 570 405 675]
571.184	6.0	4315750	4321788	ShowFixation	VGS	81	4	False	lime	40	[ 90 570 405 675]	[1350 1830  405  675]
577.222	0.2	4321788	4322027	BlankScreen	VGS	81	4	False	lime	40	[ 90 570 405 675]	[1350 1830  405  675]
577.461	1.0	4322027	4323027	ELCue	VGS	81	4	False	lime	40	[ 90 570 405 675]	[1350 1830  405  675]
578.879	6.0	4323445	4329479	ShowFixation	VGS	82	4	False	lime	180	[405 885 405 675]	[1035 1515  405  675]
584.913	0.2	4329479	4329718	BlankScreen	VGS	82	4	False	lime	180	[405 885 405 675]	[1035 1515  405  675]
585.152	1.0	4329718	4330718	ELCue	VGS	82	4	False	lime	180	[405 885 405 675]	[1035 1515  405  675]
586.57	2.0	4331136	4333170	ShowFixation	ANTI	83	4	False	red	180	[1035 1515  405  675]	[405 885 405 675]
588.604	0.2	4333170	4333405	BlankScreen	ANTI	83	4	False	red	180	[1035 1515  405  675]	[405 885 405 675]
588.839	1.0	4333405	4334405	ELCue	ANTI	83	4	False	red	180	[1035 1515  405  675]	[405 885 405 675]
590.262	2.0	4334828	4336857	ShowFixation	VGS	84	4	False	lime	40	[ 90 570 405 675]	[1350 1830  405  675]
592.291	0.2	4336857	4337092	BlankScreen	VGS	84	4	False	lime	40	[ 90 570 405 675]	[1350 1830  405  675]
592.526	1.0	4337092	4338092	ELCue	VGS	84	4	False	lime	40	[ 90 570 405 675]	[1350 1830  405  675]
593.945	6.0	4338511	4344544	ShowFixation	ANTI	85	4	False	red	460	[405 885 405 675]	[1035 1515  405  675]
599.978	0.2	4344544	4344783	BlankScreen	ANTI	85	4	False	red	460	[405 885 405 675]	[1035 1515  405  675]
600.217	1.0	4344783	4345783	ELCue	ANTI	85	4	False	red	460	[405 885 405 675]	[1035 1515  405  675]
601.637	6.0	4346203	4352234	ShowFixation	ANTI	86	4	False	red	600	[ 90 570 405 675]	[1350 1830  405  675]
607.668	0.2	4352234	4352474	BlankScreen	ANTI	86	4	False	red	600	[ 90 570 405 675]	[1350 1830  405  675]
607.908	1.0	4352474	4353474	ELCue	ANTI	86	4	False	red	600	[ 90 570 405 675]	[1350 1830  405  675]
609.328	6.0	4353894	4359925	ShowFixation	VGS	87	4	False	lime	40	[ 90 570 405 675]	[1350 1830  405  675]
615.359	0.2	4359925	4360165	BlankScreen	VGS	87	4	False	lime	40	[ 90 570 405 675]	[1350 1830  405  675]
615.599	1.0	4360165	4361165	ELCue	VGS	87	4	False	lime	40	[ 90 570 405 675]	[1350 1830  405  675]
617.019	6.0	4361585	4367616	ShowFixation	VGS	88	4	False	lime	460	[1035 1515  405  675]	[405 885 405 675]
623.05	0.2	4367616	4367856	BlankScreen	VGS	88	4	False	lime	460	[1035 1515  405  675]	[405 885 405 675]
623.29	1.0	4367856	4368856	ELCue	VGS	88	4	False	lime	460	[1035 1515  405  675]	[405 885 405 675]
624.714	2.0	4369280	4371307	ShowFixation	VGS	89	4	False	lime	600	[1350 1830  405  675]	[ 90 570 405 675]
626.741	0.2	4371307	4371543	BlankScreen	VGS	89	4	False	lime	600	[1350 1830  405  675]	[ 90 570 405 675]
626.977	1.0	4371543	4372543	ELCue	VGS	89	4	False	lime	600	[1350 1830  405  675]	[ 90 570 405 675]
628.397	2.0	4372963	4374994	ShowFixation	VGS	90	4	False	lime	600	[1350 1830  405  675]	[ 90 570 405 675]
630.428	0.2	4374994	4375230	BlankScreen	VGS	90	4	False	lime	600	[1350 1830  405  675]	[ 90 570 405 675]
630.664	1.0	4375230	4376230	ELCue	VGS	90	4	False	lime	600	[1350 1830  405  675]	[ 90 570 405 675]
632.086	6.0	4376652	4382681	ShowFixation	ANTI	91	4	False	red	460	[405 885 405 675]	[1035 1515  405  675]
638.115	0.2	4382681	4382920	BlankScreen	ANTI	91	4	False	red	460	[405 885 405 675]	[1035 1515  405  675]
638.354	1.0	4382920	4383920	ELCue	ANTI	91	4	False	red	460	[405 885 405 675]	[1035 1515  405  675]
639.775	2.0	4384341	4386372	ShowFixation	ANTI	92	4	False	red	180	[1035 1515  405  675]	[405 885 405 675]
641.806	0.2	4386372	4386607	BlankScreen	ANTI	92	4	False	red	180	[1035 1515  405  675]	[405 885 405 675]
642.041	1.0	4386607	4387607	ELCue	ANTI	92	4	False	red	180	[1035 1515  405  675]	[405 885 405 675]
643.466	6.0	4388032	4394060	ShowFixation	VGS	93	4	False	lime	600	[1350 1830  405  675]	[ 90 570 405 675]
649.494	0.2	4394060	4394299	BlankScreen	VGS	93	4	False	lime	600	[1350 1830  405  675]	[ 90 570 405 675]
649.733	1.0	4394299	4395299	ELCue	VGS	93	4	False	lime	600	[1350 1830  405  675]	[ 90 570 405 675]
651.15	6.0	4395716	4401750	ShowFixation	ANTI	94	4	False	red	40	[1350 1830  405  675]	[ 90 570 405 675]
657.184	0.2	4401750	4401989	BlankScreen	ANTI	94	4	False	red	40	[1350 1830  405  675]	[ 90 570 405 675]
657.423	1.0	4401989	4402989	ELCue	ANTI	94	4	False	red	40	[1350 1830  405  675]	[ 90 570 405 675]
658.845	2.0	4403411	4405441	ShowFixation	ANTI	95	4	False	red	600	[ 90 570 405 675]	[1350 1830  405  675]
660.875	0.2	4405441	4405676	BlankScreen	ANTI	95	4	False	red	600	[ 90 570 405 675]	[1350 1830  405  675]
661.11	1.0	4405676	4406676	ELCue	ANTI	95	4	False	red	600	[ 90 570 405 675]	[1350 1830  405  675]
662.528	2.0	4407094	4409128	ShowFixation	ANTI	96	4	False	red	460	[405 885 405 675]	[1035 1515  405  675]
664.562	0.2	4409128	4409363	BlankScreen	ANTI	96	4	False	red	460	[405 885 405 675]	[1035 1515  405  675]
664.797	1.0	4409363	4410363	ELCue	ANTI	96	4	False	red	460	[405 885 405 675]	[1035 1515  405  675]
666.222	2.0	4410788	4412815	ShowFixation	VGS	97	4	False	lime	180	[405 885 405 675]	[1035 1515  405  675]
668.249	0.2	4412815	4413050	BlankScreen	VGS	97	4	False	lime	180	[405 885 405 675]	[1035 1515  405  675]
668.484	1.0	4413050	4414050	ELCue	VGS	97	4	False	lime	180	[405 885 405 675]	[1035 1515  405  675]
669.904	2.0	4414470	4416502	ShowFixation	VGS	98	4	False	lime	180	[405 885 405 675]	[1035 1515  405  675]
671.936	0.2	4416502	4416737	BlankScreen	VGS	98	4	False	lime	180	[405 885 405 675]	[1035 1515  405  675]
672.171	1.0	4416737	4417737	ELCue	VGS	98	4	False	lime	180	[405 885 405 675]	[1035 1515  405  675]
673.576	2.0	4418142	4420172	ShowFixation	ANTI	99	4	False	red	40	[1350 1830  405  675]	[ 90 570 405 675]
675.606	0.2	4420172	4420407	BlankScreen	ANTI	99	4	False	red	40	[1350 1830  405  675]	[ 90 570 405 675]
675.841	1.0	4420407	4421407	ELCue	ANTI	99	4	False	red	40	[1350 1830  405  675]	[ 90 570 405 675]
677.265	2.0	4421831	4423859	ShowFixation	VGS	100	4	False	lime	460	[1035 1515  405  675]	[405 885 405 675]
679.293	0.2	4423859	4424094	BlankScreen	VGS	100	4	False	lime	460	[1035 1515  405  675]	[405 885 405 675]
679.528	1.0	4424094	4425094	ELCue	VGS	100	4	False	lime	460	[1035 1515  405  675]	[405 885 405 675]
680.952	6.0	4425518	4431546	ShowFixation	ANTI	101	4	False	red	40	[1350 1830  405  675]	[ 90 570 405 675]
686.98	0.2	4431546	4431785	BlankScreen	ANTI	101	4	False	red	40	[1350 1830  405  675]	[ 90 570 405 675]
687.219	1.0	4431785	4432785	ELCue	ANTI	101	4	False	red	40	[1350 1830  405  675]	[ 90 570 405 675]
688.639	6.0	4433205	4439238	ShowFixation	ANTI	102	4	False	red	180	[1035 1515  405  675]	[405 885 405 675]
694.672	0.2	4439238	4439477	BlankScreen	ANTI	102	4	False	red	180	[1035 1515  405  675]	[405 885 405 675]
694.911	1.0	4439477	4440477	ELCue	ANTI	102	4	False	red	180	[1035 1515  405  675]	[405 885 405 675]
696.33	2.0	4440896	4442929	ShowFixation	ANTI	103	4	False	red	40	[1350 1830  405  675]	[ 90 570 405 675]
698.363	0.2	4442929	4443164	BlankScreen	ANTI	103	4	False	red	40	[1350 1830  405  675]	[ 90 570 405 675]
698.598	1.0	4443164	4444164	ELCue	ANTI	103	4	False	red	40	[1350 1830  405  675]	[ 90 570 405 675]
700.019	6.0	4444585	4450616	ShowFixation	VGS	104	4	False	lime	460	[1035 1515  405  675]	[405 885 405 675]
706.05	0.2	4450616	4450855	BlankScreen	VGS	104	4	False	lime	460	[1035 1515  405  675]	[405 885 405 675]
706.289	1.0	4450855	4451855	ELCue	VGS	104	4	False	lime	460	[1035 1515  405  675]	[405 885 405 675]
707.711	6.0	4452277	4458307	ShowFixation	ANTI	105	4	False	red	180	[1035 1515  405  675]	[405 885 405 675]
713.741	0.2	4458307	4458546	BlankScreen	ANTI	105	4	False	red	180	[1035 1515  405  675]	[405 885 405 675]
713.98	1.0	4458546	4459546	ELCue	ANTI	105	4	False	red	180	[1035 1515  405  675]	[405 885 405 675]
715.401	2.0	4459967	4461998	ShowFixation	ANTI	106	4	False	red	600	[ 90 570 405 675]	[1350 1830  405  675]
717.432	0.2	4461998	4462233	BlankScreen	ANTI	106	4	False	red	600	[ 90 570 405 675]	[1350 1830  405  675]
717.667	1.0	4462233	4463233	ELCue	ANTI	106	4	False	red	600	[ 90 570 405 675]	[1350 1830  405  675]
719.09	2.0	4463656	4465685	ShowFixation	VGS	107	4	False	lime	460	[1035 1515  405  675]	[405 885 405 675]
721.119	0.2	4465685	4465920	BlankScreen	VGS	107	4	False	lime	460	[1035 1515  405  675]	[405 885 405 675]
721.354	1.0	4465920	4466920	ELCue	VGS	107	4	False	lime	460	[1035 1515  405  675]	[405 885 405 675]
722.774	2.0	4467340	4469371	ShowFixation	VGS	108	4	False	lime	40	[ 90 570 405 675]	[1350 1830  405  675]
724.805	0.2	4469371	4469607	BlankScreen	VGS	108	4	False	lime	40	[ 90 570 405 675]	[1350 1830  405  675]
725.041	1.0	4469607	4470607	ELCue	VGS	108	4	False	lime	40	[ 90 570 405 675]	[1350 1830  405  675]
726.462	6.0	4471028	4477058	ShowFixation	VGS	109	4	False	lime	180	[405 885 405 675]	[1035 1515  405  675]
732.492	0.2	4477058	4477298	BlankScreen	VGS	109	4	False	lime	180	[405 885 405 675]	[1035 1515  405  675]
732.732	1.0	4477298	4478298	ELCue	VGS	109	4	False	lime	180	[405 885 405 675]	[1035 1515  405  675]
734.15	6.0	4478716	4484749	ShowFixation	VGS	110	4	False	lime	600	[1350 1830  405  675]	[ 90 570 405 675]
740.183	0.2	4484749	4484989	BlankScreen	VGS	110	4	False	lime	600	[1350 1830  405  675]	[ 90 570 405 675]
740.423	1.0	4484989	4485989	ELCue	VGS	110	4	False	lime	600	[1350 1830  405  675]	[ 90 570 405 675]
741.84	6.0	4486406	4492440	ShowFixation	ANTI	111	4	False	red	600	[ 90 570 405 675]	[1350 1830  405  675]
747.874	0.2	4492440	4492680	BlankScreen	ANTI	111	4	False	red	600	[ 90 570 405 675]	[1350 1830  405  675]
748.114	1.0	4492680	4493680	ELCue	ANTI	111	4	False	red	600	[ 90 570 405 675]	[1350 1830  405  675]
749.536	2.0	4494102	4496131	ShowFixation	ANTI	112	4	False	red	460	[405 885 405 675]	[1035 1515  405  675]
751.565	0.2	4496131	4496367	BlankScreen	ANTI	112	4	False	red	460	[405 885 405 675]	[1035 1515  405  675]
751.801	1.0	4496367	4497367	ELCue	ANTI	112	4	False	red	460	[405 885 405 675]	[1035 1515  405  675]
