onset	duration	startTime	stopTime	eventIdentifier	trial_type	trial_number	block_number	is_practice	fixation_color	cue_side	aoi_correct	aoi_incorrect
0.146	2.0	438753	440791	ShowFixation	ANTI	1	1	True	red	600	[ 90 570 405 675]	[1350 1830  405  675]
2.184	0.2	440791	441026	BlankScreen	ANTI	1	1	True	red	600	[ 90 570 405 675]	[1350 1830  405  675]
2.419	1.0	441026	442067	ELCue	ANTI	1	1	True	red	600	[ 90 570 405 675]	[1350 1830  405  675]
3.867	6.0	442474	449095	ShowFixation	VGS	2	1	True	lime	460	[1035 1515  405  675]	[405 885 405 675]
10.488	0.2	449095	449334	BlankScreen	VGS	2	1	True	lime	460	[1035 1515  405  675]	[405 885 405 675]
10.727	1.0	449334	450375	ELCue	VGS	2	1	True	lime	460	[1035 1515  405  675]	[405 885 405 675]
12.157	2.0	450764	453403	ShowFixation	VGS	3	1	True	lime	600	[1350 1830  405  675]	[ 90 570 405 675]
14.796	0.2	453403	453622	BlankScreen	VGS	3	1	True	lime	600	[1350 1830  405  675]	[ 90 570 405 675]
15.015	1.0	453622	454646	ELCue	VGS	3	1	True	lime	600	[1350 1830  405  675]	[ 90 570 405 675]
16.443	6.0	455050	461691	ShowFixation	ANTI	4	1	True	red	40	[1350 1830  405  675]	[ 90 570 405 675]
23.084	0.2	461691	461930	BlankScreen	ANTI	4	1	True	red	40	[1350 1830  405  675]	[ 90 570 405 675]
23.323	1.0	461930	462968	ELCue	ANTI	4	1	True	red	40	[1350 1830  405  675]	[ 90 570 405 675]
24.753	2.0	463360	465982	ShowFixation	ANTI	5	1	True	red	40	[1350 1830  405  675]	[ 90 570 405 675]
27.375	0.2	465982	466201	BlankScreen	ANTI	5	1	True	red	40	[1350 1830  405  675]	[ 90 570 405 675]
27.594	1.0	466201	467225	ELCue	ANTI	5	1	True	red	40	[1350 1830  405  675]	[ 90 570 405 675]
29.023	2.0	467630	470270	ShowFixation	VGS	6	1	True	lime	180	[405 885 405 675]	[1035 1515  405  675]
31.663	0.2	470270	470505	BlankScreen	VGS	6	1	True	lime	180	[405 885 405 675]	[1035 1515  405  675]
31.898	1.0	470505	471546	ELCue	VGS	6	1	True	lime	180	[405 885 405 675]	[1035 1515  405  675]
33.341	2.0	471948	474591	ShowFixation	ANTI	7	1	True	red	180	[1035 1515  405  675]	[405 885 405 675]
35.984	0.2	474591	474826	BlankScreen	ANTI	7	1	True	red	180	[1035 1515  405  675]	[405 885 405 675]
36.219	1.0	474826	475867	ELCue	ANTI	7	1	True	red	180	[1035 1515  405  675]	[405 885 405 675]
37.662	2.0	476269	478895	ShowFixation	VGS	8	1	True	lime	460	[1035 1515  405  675]	[405 885 405 675]
40.289	0.2	478896	479114	BlankScreen	VGS	8	1	True	lime	460	[1035 1515  405  675]	[405 885 405 675]
40.508	1.0	479115	480138	ELCue	VGS	8	1	True	lime	460	[1035 1515  405  675]	[405 885 405 675]
41.904	6.0	480511	487184	ShowFixation	VGS	9	1	True	lime	40	[ 90 570 405 675]	[1350 1830  405  675]
48.577	0.2	487184	487423	BlankScreen	VGS	9	1	True	lime	40	[ 90 570 405 675]	[1350 1830  405  675]
48.816	1.0	487423	488463	ELCue	VGS	9	1	True	lime	40	[ 90 570 405 675]	[1350 1830  405  675]
50.261	2.0	488868	491509	ShowFixation	VGS	10	1	True	lime	40	[ 90 570 405 675]	[1350 1830  405  675]
52.902	0.2	491509	491744	BlankScreen	VGS	10	1	True	lime	40	[ 90 570 405 675]	[1350 1830  405  675]
53.137	1.0	491744	492784	ELCue	VGS	10	1	True	lime	40	[ 90 570 405 675]	[1350 1830  405  675]
54.583	6.0	493190	499830	ShowFixation	ANTI	11	1	True	red	600	[ 90 570 405 675]	[1350 1830  405  675]
61.223	0.2	499830	500069	BlankScreen	ANTI	11	1	True	red	600	[ 90 570 405 675]	[1350 1830  405  675]
61.462	1.0	500069	501108	ELCue	ANTI	11	1	True	red	600	[ 90 570 405 675]	[1350 1830  405  675]
62.905	6.0	501512	508138	ShowFixation	VGS	12	1	True	lime	180	[405 885 405 675]	[1035 1515  405  675]
69.531	0.2	508138	508377	BlankScreen	VGS	12	1	True	lime	180	[405 885 405 675]	[1035 1515  405  675]
69.77	1.0	508377	509417	ELCue	VGS	12	1	True	lime	180	[405 885 405 675]	[1035 1515  405  675]
71.211	2.0	509818	512463	ShowFixation	ANTI	13	1	True	red	460	[405 885 405 675]	[1035 1515  405  675]
73.856	0.2	512463	512698	BlankScreen	ANTI	13	1	True	red	460	[405 885 405 675]	[1035 1515  405  675]
74.091	1.0	512698	513738	ELCue	ANTI	13	1	True	red	460	[405 885 405 675]	[1035 1515  405  675]
75.534	6.0	514141	520767	ShowFixation	ANTI	14	1	True	red	460	[405 885 405 675]	[1035 1515  405  675]
82.16	0.2	520767	521006	BlankScreen	ANTI	14	1	True	red	460	[405 885 405 675]	[1035 1515  405  675]
82.399	1.0	521006	522063	ELCue	ANTI	14	1	True	red	460	[405 885 405 675]	[1035 1515  405  675]
83.844	6.0	522451	529108	ShowFixation	ANTI	15	1	True	red	180	[1035 1515  405  675]	[405 885 405 675]
90.501	0.2	529108	529348	BlankScreen	ANTI	15	1	True	red	180	[1035 1515  405  675]	[405 885 405 675]
90.741	1.0	529348	530388	ELCue	ANTI	15	1	True	red	180	[1035 1515  405  675]	[405 885 405 675]
92.166	6.0	530773	537433	ShowFixation	VGS	16	1	True	lime	600	[1350 1830  405  675]	[ 90 570 405 675]
98.826	0.2	537433	537673	BlankScreen	VGS	16	1	True	lime	600	[1350 1830  405  675]	[ 90 570 405 675]
99.066	1.0	537673	538713	ELCue	VGS	16	1	True	lime	600	[1350 1830  405  675]	[ 90 570 405 675]
118.022	6.0	556629	562658	ShowFixation	ANTI	17	2	False	red	180	[1035 1515  405  675]	[405 885 405 675]
124.051	0.2	562658	562898	BlankScreen	ANTI	17	2	False	red	180	[1035 1515  405  675]	[405 885 405 675]
124.291	1.0	562898	563898	ELCue	ANTI	17	2	False	red	180	[1035 1515  405  675]	[405 885 405 675]
125.695	2.0	564302	566332	ShowFixation	VGS	18	2	False	lime	180	[405 885 405 675]	[1035 1515  405  675]
127.725	0.2	566332	566568	BlankScreen	VGS	18	2	False	lime	180	[405 885 405 675]	[1035 1515  405  675]
127.961	1.0	566568	567568	ELCue	VGS	18	2	False	lime	180	[405 885 405 675]	[1035 1515  405  675]
129.369	6.0	567976	574003	ShowFixation	VGS	19	2	False	lime	180	[405 885 405 675]	[1035 1515  405  675]
135.396	0.2	574003	574242	BlankScreen	VGS	19	2	False	lime	180	[405 885 405 675]	[1035 1515  405  675]
135.635	1.0	574242	575242	ELCue	VGS	19	2	False	lime	180	[405 885 405 675]	[1035 1515  405  675]
137.04	6.0	575647	581677	ShowFixation	VGS	20	2	False	lime	460	[1035 1515  405  675]	[405 885 405 675]
143.07	0.2	581677	581916	BlankScreen	VGS	20	2	False	lime	460	[1035 1515  405  675]	[405 885 405 675]
143.309	1.0	581916	582916	ELCue	VGS	20	2	False	lime	460	[1035 1515  405  675]	[405 885 405 675]
144.72	6.0	583327	589368	ShowFixation	ANTI	21	2	False	red	460	[405 885 405 675]	[1035 1515  405  675]
150.761	0.2	589368	589607	BlankScreen	ANTI	21	2	False	red	460	[405 885 405 675]	[1035 1515  405  675]
151.0	1.0	589607	590607	ELCue	ANTI	21	2	False	red	460	[405 885 405 675]	[1035 1515  405  675]
152.408	2.0	591015	593042	ShowFixation	ANTI	22	2	False	red	180	[1035 1515  405  675]	[405 885 405 675]
154.435	0.2	593042	593277	BlankScreen	ANTI	22	2	False	red	180	[1035 1515  405  675]	[405 885 405 675]
154.67	1.0	593277	594277	ELCue	ANTI	22	2	False	red	180	[1035 1515  405  675]	[405 885 405 675]
156.072	6.0	594679	600712	ShowFixation	ANTI	23	2	False	red	600	[ 90 570 405 675]	[1350 1830  405  675]
162.105	0.2	600712	600952	BlankScreen	ANTI	23	2	False	red	600	[ 90 570 405 675]	[1350 1830  405  675]
162.345	1.0	600952	601952	ELCue	ANTI	23	2	False	red	600	[ 90 570 405 675]	[1350 1830  405  675]
163.751	6.0	602358	608387	ShowFixation	VGS	24	2	False	lime	600	[1350 1830  405  675]	[ 90 570 405 675]
169.78	0.2	608387	608626	BlankScreen	VGS	24	2	False	lime	600	[1350 1830  405  675]	[ 90 570 405 675]
170.019	1.0	608626	609626	ELCue	VGS	24	2	False	lime	600	[1350 1830  405  675]	[ 90 570 405 675]
171.429	2.0	610036	612061	ShowFixation	ANTI	25	2	False	red	180	[1035 1515  405  675]	[405 885 405 675]
173.454	0.2	612061	612296	BlankScreen	ANTI	25	2	False	red	180	[1035 1515  405  675]	[405 885 405 675]
173.689	1.0	612296	613296	ELCue	ANTI	25	2	False	red	180	[1035 1515  405  675]	[405 885 405 675]
175.094	2.0	613701	615731	ShowFixation	VGS	26	2	False	lime	180	[405 885 405 675]	[1035 1515  405  675]
177.124	0.2	615731	615967	BlankScreen	VGS	26	2	False	lime	180	[405 885 405 675]	[1035 1515  405  675]
177.36	1.0	615967	616967	ELCue	VGS	26	2	False	lime	180	[405 885 405 675]	[1035 1515  405  675]
178.734	2.0	617341	619368	ShowFixation	VGS	27	2	False	lime	40	[ 90 570 405 675]	[1350 1830  405  675]
180.762	0.2	619369	619603	BlankScreen	VGS	27	2	False	lime	40	[ 90 570 405 675]	[1350 1830  405  675]
180.997	1.0	619604	620604	ELCue	VGS	27	2	False	lime	40	[ 90 570 405 675]	[1350 1830  405  675]
182.401	2.0	621008	623039	ShowFixation	ANTI	28	2	False	red	600	[ 90 570 405 675]	[1350 1830  405  675]
184.432	0.2	623039	623275	BlankScreen	ANTI	28	2	False	red	600	[ 90 570 405 675]	[1350 1830  405  675]
184.668	1.0	623275	624275	ELCue	ANTI	28	2	False	red	600	[ 90 570 405 675]	[1350 1830  405  675]
186.074	2.0	624681	626709	ShowFixation	VGS	29	2	False	lime	40	[ 90 570 405 675]	[1350 1830  405  675]
188.103	0.2	626710	626944	BlankScreen	VGS	29	2	False	lime	40	[ 90 570 405 675]	[1350 1830  405  675]
188.338	1.0	626945	627945	ELCue	VGS	29	2	False	lime	40	[ 90 570 405 675]	[1350 1830  405  675]
189.751	2.0	628358	630397	ShowFixation	ANTI	30	2	False	red	40	[1350 1830  405  675]	[ 90 570 405 675]
191.79	0.2	630397	630631	BlankScreen	ANTI	30	2	False	red	40	[1350 1830  405  675]	[ 90 570 405 675]
192.024	1.0	630631	631631	ELCue	ANTI	30	2	False	red	40	[1350 1830  405  675]	[ 90 570 405 675]
193.436	6.0	632043	638084	ShowFixation	ANTI	31	2	False	red	180	[1035 1515  405  675]	[405 885 405 675]
199.477	0.2	638084	638322	BlankScreen	ANTI	31	2	False	red	180	[1035 1515  405  675]	[405 885 405 675]
199.716	1.0	638323	639323	ELCue	ANTI	31	2	False	red	180	[1035 1515  405  675]	[405 885 405 675]
201.128	2.0	639735	641775	ShowFixation	VGS	32	2	False	lime	460	[1035 1515  405  675]	[405 885 405 675]
203.168	0.2	641775	642010	BlankScreen	VGS	32	2	False	lime	460	[1035 1515  405  675]	[405 885 405 675]
203.403	1.0	642010	643010	ELCue	VGS	32	2	False	lime	460	[1035 1515  405  675]	[405 885 405 675]
204.814	2.0	643421	645462	ShowFixation	VGS	33	2	False	lime	460	[1035 1515  405  675]	[405 885 405 675]
206.855	0.2	645462	645697	BlankScreen	VGS	33	2	False	lime	460	[1035 1515  405  675]	[405 885 405 675]
207.09	1.0	645697	646697	ELCue	VGS	33	2	False	lime	460	[1035 1515  405  675]	[405 885 405 675]
208.502	6.0	647109	653149	ShowFixation	ANTI	34	2	False	red	600	[ 90 570 405 675]	[1350 1830  405  675]
214.542	0.2	653149	653388	BlankScreen	ANTI	34	2	False	red	600	[ 90 570 405 675]	[1350 1830  405  675]
214.781	1.0	653388	654388	ELCue	ANTI	34	2	False	red	600	[ 90 570 405 675]	[1350 1830  405  675]
216.19	6.0	654797	660823	ShowFixation	ANTI	35	2	False	red	40	[1350 1830  405  675]	[ 90 570 405 675]
222.216	0.2	660823	661062	BlankScreen	ANTI	35	2	False	red	40	[1350 1830  405  675]	[ 90 570 405 675]
222.455	1.0	661062	662062	ELCue	ANTI	35	2	False	red	40	[1350 1830  405  675]	[ 90 570 405 675]
223.862	2.0	662469	664497	ShowFixation	ANTI	36	2	False	red	600	[ 90 570 405 675]	[1350 1830  405  675]
225.89	0.2	664497	664732	BlankScreen	ANTI	36	2	False	red	600	[ 90 570 405 675]	[1350 1830  405  675]
226.125	1.0	664732	665732	ELCue	ANTI	36	2	False	red	600	[ 90 570 405 675]	[1350 1830  405  675]
227.529	2.0	666136	668167	ShowFixation	ANTI	37	2	False	red	460	[405 885 405 675]	[1035 1515  405  675]
229.56	0.2	668167	668403	BlankScreen	ANTI	37	2	False	red	460	[405 885 405 675]	[1035 1515  405  675]
229.796	1.0	668403	669403	ELCue	ANTI	37	2	False	red	460	[405 885 405 675]	[1035 1515  405  675]
231.208	6.0	669815	675854	ShowFixation	VGS	38	2	False	lime	460	[1035 1515  405  675]	[405 885 405 675]
237.247	0.2	675854	676094	BlankScreen	VGS	38	2	False	lime	460	[1035 1515  405  675]	[405 885 405 675]
237.487	1.0	676094	677094	ELCue	VGS	38	2	False	lime	460	[1035 1515  405  675]	[405 885 405 675]
238.877	2.0	677484	679512	ShowFixation	VGS	39	2	False	lime	600	[1350 1830  405  675]	[ 90 570 405 675]
240.905	0.2	679512	679747	BlankScreen	VGS	39	2	False	lime	600	[1350 1830  405  675]	[ 90 570 405 675]
241.14	1.0	679747	680747	ELCue	VGS	39	2	False	lime	600	[1350 1830  405  675]	[ 90 570 405 675]
242.55	6.0	681157	687182	ShowFixation	VGS	40	2	False	lime	180	[405 885 405 675]	[1035 1515  405  675]
248.575	0.2	687182	687421	BlankScreen	VGS	40	2	False	lime	180	[405 885 405 675]	[1035 1515  405  675]
248.814	1.0	687421	688421	ELCue	VGS	40	2	False	lime	180	[405 885 405 675]	[1035 1515  405  675]
250.224	6.0	688831	694856	ShowFixation	VGS	41	2	False	lime	40	[ 90 570 405 675]	[1350 1830  405  675]
256.249	0.2	694856	695096	BlankScreen	VGS	41	2	False	lime	40	[ 90 570 405 675]	[1350 1830  405  675]
256.489	1.0	695096	696096	ELCue	VGS	41	2	False	lime	40	[ 90 570 405 675]	[1350 1830  405  675]
257.895	2.0	696502	698531	ShowFixation	VGS	42	2	False	lime	600	[1350 1830  405  675]	[ 90 570 405 675]
259.924	0.2	698531	698766	BlankScreen	VGS	42	2	False	lime	600	[1350 1830  405  675]	[ 90 570 405 675]
260.159	1.0	698766	699766	ELCue	VGS	42	2	False	lime	600	[1350 1830  405  675]	[ 90 570 405 675]
261.566	2.0	700173	702201	ShowFixation	ANTI	43	2	False	red	460	[405 885 405 675]	[1035 1515  405  675]
263.594	0.2	702201	702436	BlankScreen	ANTI	43	2	False	red	460	[405 885 405 675]	[1035 1515  405  675]
263.829	1.0	702436	703436	ELCue	ANTI	43	2	False	red	460	[405 885 405 675]	[1035 1515  405  675]
265.233	6.0	703840	709871	ShowFixation	ANTI	44	2	False	red	40	[1350 1830  405  675]	[ 90 570 405 675]
271.264	0.2	709871	710111	BlankScreen	ANTI	44	2	False	red	40	[1350 1830  405  675]	[ 90 570 405 675]
271.504	1.0	710111	711111	ELCue	ANTI	44	2	False	red	40	[1350 1830  405  675]	[ 90 570 405 675]
272.893	6.0	711500	717529	ShowFixation	VGS	45	2	False	lime	600	[1350 1830  405  675]	[ 90 570 405 675]
278.922	0.2	717529	717768	BlankScreen	VGS	45	2	False	lime	600	[1350 1830  405  675]	[ 90 570 405 675]
279.161	1.0	717768	718768	ELCue	VGS	45	2	False	lime	600	[1350 1830  405  675]	[ 90 570 405 675]
280.566	6.0	719173	725203	ShowFixation	VGS	46	2	False	lime	40	[ 90 570 405 675]	[1350 1830  405  675]
286.596	0.2	725203	725442	BlankScreen	VGS	46	2	False	lime	40	[ 90 570 405 675]	[1350 1830  405  675]
286.835	1.0	725442	726442	ELCue	VGS	46	2	False	lime	40	[ 90 570 405 675]	[1350 1830  405  675]
288.246	2.0	726853	728894	ShowFixation	ANTI	47	2	False	red	40	[1350 1830  405  675]	[ 90 570 405 675]
290.287	0.2	728894	729129	BlankScreen	ANTI	47	2	False	red	40	[1350 1830  405  675]	[ 90 570 405 675]
290.522	1.0	729129	730129	ELCue	ANTI	47	2	False	red	40	[1350 1830  405  675]	[ 90 570 405 675]
291.932	6.0	730539	736564	ShowFixation	ANTI	48	2	False	red	460	[405 885 405 675]	[1035 1515  405  675]
297.957	0.2	736564	736804	BlankScreen	ANTI	48	2	False	red	460	[405 885 405 675]	[1035 1515  405  675]
298.197	1.0	736804	737804	ELCue	ANTI	48	2	False	red	460	[405 885 405 675]	[1035 1515  405  675]
324.908	6.0	763515	769547	ShowFixation	VGS	49	3	False	lime	40	[ 90 570 405 675]	[1350 1830  405  675]
330.94	0.2	769547	769787	BlankScreen	VGS	49	3	False	lime	40	[ 90 570 405 675]	[1350 1830  405  675]
331.18	1.0	769787	770787	ELCue	VGS	49	3	False	lime	40	[ 90 570 405 675]	[1350 1830  405  675]
332.558	2.0	771165	773205	ShowFixation	VGS	50	3	False	lime	600	[1350 1830  405  675]	[ 90 570 405 675]
334.598	0.2	773205	773440	BlankScreen	VGS	50	3	False	lime	600	[1350 1830  405  675]	[ 90 570 405 675]
334.834	1.0	773441	774441	ELCue	VGS	50	3	False	lime	600	[1350 1830  405  675]	[ 90 570 405 675]
336.225	6.0	774832	780858	ShowFixation	VGS	51	3	False	lime	40	[ 90 570 405 675]	[1350 1830  405  675]
342.252	0.2	780859	781097	BlankScreen	VGS	51	3	False	lime	40	[ 90 570 405 675]	[1350 1830  405  675]
342.49	1.0	781097	782097	ELCue	VGS	51	3	False	lime	40	[ 90 570 405 675]	[1350 1830  405  675]
343.904	6.0	782511	788550	ShowFixation	ANTI	52	3	False	red	180	[1035 1515  405  675]	[405 885 405 675]
349.943	0.2	788550	788789	BlankScreen	ANTI	52	3	False	red	180	[1035 1515  405  675]	[405 885 405 675]
350.182	1.0	788789	789789	ELCue	ANTI	52	3	False	red	180	[1035 1515  405  675]	[405 885 405 675]
351.587	2.0	790194	792224	ShowFixation	VGS	53	3	False	lime	40	[ 90 570 405 675]	[1350 1830  405  675]
353.617	0.2	792224	792459	BlankScreen	VGS	53	3	False	lime	40	[ 90 570 405 675]	[1350 1830  405  675]
353.852	1.0	792459	793459	ELCue	VGS	53	3	False	lime	40	[ 90 570 405 675]	[1350 1830  405  675]
355.263	2.0	793870	795911	ShowFixation	ANTI	54	3	False	red	460	[405 885 405 675]	[1035 1515  405  675]
357.304	0.2	795911	796146	BlankScreen	ANTI	54	3	False	red	460	[405 885 405 675]	[1035 1515  405  675]
357.539	1.0	796146	797146	ELCue	ANTI	54	3	False	red	460	[405 885 405 675]	[1035 1515  405  675]
358.945	6.0	797552	803581	ShowFixation	ANTI	55	3	False	red	40	[1350 1830  405  675]	[ 90 570 405 675]
364.974	0.2	803581	803821	BlankScreen	ANTI	55	3	False	red	40	[1350 1830  405  675]	[ 90 570 405 675]
365.214	1.0	803821	804821	ELCue	ANTI	55	3	False	red	40	[1350 1830  405  675]	[ 90 570 405 675]
366.623	2.0	805230	807256	ShowFixation	VGS	56	3	False	lime	460	[1035 1515  405  675]	[405 885 405 675]
368.649	0.2	807256	807491	BlankScreen	VGS	56	3	False	lime	460	[1035 1515  405  675]	[405 885 405 675]
368.884	1.0	807491	808491	ELCue	VGS	56	3	False	lime	460	[1035 1515  405  675]	[405 885 405 675]
370.295	2.0	808902	810943	ShowFixation	ANTI	57	3	False	red	180	[1035 1515  405  675]	[405 885 405 675]
372.336	0.2	810943	811178	BlankScreen	ANTI	57	3	False	red	180	[1035 1515  405  675]	[405 885 405 675]
372.571	1.0	811178	812178	ELCue	ANTI	57	3	False	red	180	[1035 1515  405  675]	[405 885 405 675]
373.975	2.0	812582	814613	ShowFixation	VGS	58	3	False	lime	600	[1350 1830  405  675]	[ 90 570 405 675]
376.006	0.2	814613	814848	BlankScreen	VGS	58	3	False	lime	600	[1350 1830  405  675]	[ 90 570 405 675]
376.241	1.0	814848	815848	ELCue	VGS	58	3	False	lime	600	[1350 1830  405  675]	[ 90 570 405 675]
377.648	6.0	816255	822283	ShowFixation	ANTI	59	3	False	red	600	[ 90 570 405 675]	[1350 1830  405  675]
383.676	0.2	822283	822522	BlankScreen	ANTI	59	3	False	red	600	[ 90 570 405 675]	[1350 1830  405  675]
383.915	1.0	822522	823522	ELCue	ANTI	59	3	False	red	600	[ 90 570 405 675]	[1350 1830  405  675]
385.327	2.0	823934	825974	ShowFixation	ANTI	60	3	False	red	40	[1350 1830  405  675]	[ 90 570 405 675]
387.367	0.2	825974	826209	BlankScreen	ANTI	60	3	False	red	40	[1350 1830  405  675]	[ 90 570 405 675]
387.602	1.0	826209	827209	ELCue	ANTI	60	3	False	red	40	[1350 1830  405  675]	[ 90 570 405 675]
389.011	6.0	827618	833644	ShowFixation	VGS	61	3	False	lime	600	[1350 1830  405  675]	[ 90 570 405 675]
395.037	0.2	833644	833884	BlankScreen	VGS	61	3	False	lime	600	[1350 1830  405  675]	[ 90 570 405 675]
395.277	1.0	833884	834884	ELCue	VGS	61	3	False	lime	600	[1350 1830  405  675]	[ 90 570 405 675]
396.684	2.0	835291	837319	ShowFixation	ANTI	62	3	False	red	40	[1350 1830  405  675]	[ 90 570 405 675]
398.712	0.2	837319	837554	BlankScreen	ANTI	62	3	False	red	40	[1350 1830  405  675]	[ 90 570 405 675]
398.947	1.0	837554	838554	ELCue	ANTI	62	3	False	red	40	[1350 1830  405  675]	[ 90 570 405 675]
400.36	2.0	838967	841006	ShowFixation	VGS	63	3	False	lime	460	[1035 1515  405  675]	[405 885 405 675]
402.399	0.2	841006	841241	BlankScreen	VGS	63	3	False	lime	460	[1035 1515  405  675]	[405 885 405 675]
402.634	1.0	841241	842241	ELCue	VGS	63	3	False	lime	460	[1035 1515  405  675]	[405 885 405 675]
404.041	6.0	842648	848676	ShowFixation	VGS	64	3	False	lime	600	[1350 1830  405  675]	[ 90 570 405 675]
410.069	0.2	848676	848915	BlankScreen	VGS	64	3	False	lime	600	[1350 1830  405  675]	[ 90 570 405 675]
410.308	1.0	848915	849915	ELCue	VGS	64	3	False	lime	600	[1350 1830  405  675]	[ 90 570 405 675]
411.715	6.0	850322	856350	ShowFixation	VGS	65	3	False	lime	460	[1035 1515  405  675]	[405 885 405 675]
417.743	0.2	856350	856589	BlankScreen	VGS	65	3	False	lime	460	[1035 1515  405  675]	[405 885 405 675]
417.982	1.0	856589	857589	ELCue	VGS	65	3	False	lime	460	[1035 1515  405  675]	[405 885 405 675]
419.39	2.0	857997	860024	ShowFixation	ANTI	66	3	False	red	460	[405 885 405 675]	[1035 1515  405  675]
421.417	0.2	860024	860260	BlankScreen	ANTI	66	3	False	red	460	[405 885 405 675]	[1035 1515  405  675]
421.653	1.0	860260	861260	ELCue	ANTI	66	3	False	red	460	[405 885 405 675]	[1035 1515  405  675]
423.057	6.0	861664	867695	ShowFixation	ANTI	67	3	False	red	40	[1350 1830  405  675]	[ 90 570 405 675]
429.088	0.2	867695	867934	BlankScreen	ANTI	67	3	False	red	40	[1350 1830  405  675]	[ 90 570 405 675]
429.327	1.0	867934	868934	ELCue	ANTI	67	3	False	red	40	[1350 1830  405  675]	[ 90 570 405 675]
430.732	6.0	869339	875369	ShowFixation	ANTI	68	3	False	red	460	[405 885 405 675]	[1035 1515  405  675]
436.762	0.2	875369	875608	BlankScreen	ANTI	68	3	False	red	460	[405 885 405 675]	[1035 1515  405  675]
437.001	1.0	875608	876608	ELCue	ANTI	68	3	False	red	460	[405 885 405 675]	[1035 1515  405  675]
438.409	2.0	877016	879043	ShowFixation	VGS	69	3	False	lime	180	[405 885 405 675]	[1035 1515  405  675]
440.436	0.2	879043	879279	BlankScreen	VGS	69	3	False	lime	180	[405 885 405 675]	[1035 1515  405  675]
440.672	1.0	879279	880279	ELCue	VGS	69	3	False	lime	180	[405 885 405 675]	[1035 1515  405  675]
442.078	6.0	880685	886713	ShowFixation	ANTI	70	3	False	red	460	[405 885 405 675]	[1035 1515  405  675]
448.106	0.2	886713	886953	BlankScreen	ANTI	70	3	False	red	460	[405 885 405 675]	[1035 1515  405  675]
448.346	1.0	886953	887953	ELCue	ANTI	70	3	False	red	460	[405 885 405 675]	[1035 1515  405  675]
449.75	2.0	888357	890388	ShowFixation	ANTI	71	3	False	red	600	[ 90 570 405 675]	[1350 1830  405  675]
451.781	0.2	890388	890623	BlankScreen	ANTI	71	3	False	red	600	[ 90 570 405 675]	[1350 1830  405  675]
452.016	1.0	890623	891623	ELCue	ANTI	71	3	False	red	600	[ 90 570 405 675]	[1350 1830  405  675]
453.425	6.0	892032	898058	ShowFixation	VGS	72	3	False	lime	460	[1035 1515  405  675]	[405 885 405 675]
459.451	0.2	898058	898297	BlankScreen	VGS	72	3	False	lime	460	[1035 1515  405  675]	[405 885 405 675]
459.69	1.0	898297	899297	ELCue	VGS	72	3	False	lime	460	[1035 1515  405  675]	[405 885 405 675]
461.104	2.0	899711	901749	ShowFixation	VGS	73	3	False	lime	180	[405 885 405 675]	[1035 1515  405  675]
463.142	0.2	901749	901985	BlankScreen	VGS	73	3	False	lime	180	[405 885 405 675]	[1035 1515  405  675]
463.378	1.0	901985	902985	ELCue	VGS	73	3	False	lime	180	[405 885 405 675]	[1035 1515  405  675]
464.786	6.0	903393	909419	ShowFixation	VGS	74	3	False	lime	180	[405 885 405 675]	[1035 1515  405  675]
470.812	0.2	909419	909659	BlankScreen	VGS	74	3	False	lime	180	[405 885 405 675]	[1035 1515  405  675]
471.052	1.0	909659	910659	ELCue	VGS	74	3	False	lime	180	[405 885 405 675]	[1035 1515  405  675]
472.459	6.0	911066	917093	ShowFixation	ANTI	75	3	False	red	180	[1035 1515  405  675]	[405 885 405 675]
478.486	0.2	917093	917333	BlankScreen	ANTI	75	3	False	red	180	[1035 1515  405  675]	[405 885 405 675]
478.727	1.0	917334	918334	ELCue	ANTI	75	3	False	red	180	[1035 1515  405  675]	[405 885 405 675]
480.136	2.0	918743	920769	ShowFixation	ANTI	76	3	False	red	600	[ 90 570 405 675]	[1350 1830  405  675]
482.162	0.2	920769	921004	BlankScreen	ANTI	76	3	False	red	600	[ 90 570 405 675]	[1350 1830  405  675]
482.397	1.0	921004	922004	ELCue	ANTI	76	3	False	red	600	[ 90 570 405 675]	[1350 1830  405  675]
483.806	6.0	922413	928439	ShowFixation	VGS	77	3	False	lime	180	[405 885 405 675]	[1035 1515  405  675]
489.832	0.2	928439	928678	BlankScreen	VGS	77	3	False	lime	180	[405 885 405 675]	[1035 1515  405  675]
490.071	1.0	928678	929678	ELCue	VGS	77	3	False	lime	180	[405 885 405 675]	[1035 1515  405  675]
491.483	2.0	930090	932130	ShowFixation	VGS	78	3	False	lime	40	[ 90 570 405 675]	[1350 1830  405  675]
493.523	0.2	932130	932365	BlankScreen	VGS	78	3	False	lime	40	[ 90 570 405 675]	[1350 1830  405  675]
493.758	1.0	932365	933365	ELCue	VGS	78	3	False	lime	40	[ 90 570 405 675]	[1350 1830  405  675]
495.131	2.0	933738	935767	ShowFixation	ANTI	79	3	False	red	180	[1035 1515  405  675]	[405 885 405 675]
497.16	0.2	935767	936002	BlankScreen	ANTI	79	3	False	red	180	[1035 1515  405  675]	[405 885 405 675]
497.395	1.0	936002	937002	ELCue	ANTI	79	3	False	red	180	[1035 1515  405  675]	[405 885 405 675]
498.805	6.0	937412	943437	ShowFixation	ANTI	80	3	False	red	600	[ 90 570 405 675]	[1350 1830  405  675]
504.83	0.2	943437	943676	BlankScreen	ANTI	80	3	False	red	600	[ 90 570 405 675]	[1350 1830  405  675]
505.069	1.0	943676	944676	ELCue	ANTI	80	3	False	red	600	[ 90 570 405 675]	[1350 1830  405  675]
545.395	6.0	984002	990033	ShowFixation	ANTI	81	4	False	red	600	[ 90 570 405 675]	[1350 1830  405  675]
551.426	0.2	990033	990272	BlankScreen	ANTI	81	4	False	red	600	[ 90 570 405 675]	[1350 1830  405  675]
551.665	1.0	990272	991272	ELCue	ANTI	81	4	False	red	600	[ 90 570 405 675]	[1350 1830  405  675]
553.058	6.0	991665	997691	ShowFixation	ANTI	82	4	False	red	460	[405 885 405 675]	[1035 1515  405  675]
559.084	0.2	997691	997930	BlankScreen	ANTI	82	4	False	red	460	[405 885 405 675]	[1035 1515  405  675]
559.323	1.0	997930	998930	ELCue	ANTI	82	4	False	red	460	[405 885 405 675]	[1035 1515  405  675]
560.73	2.0	999337	1001365	ShowFixation	ANTI	83	4	False	red	180	[1035 1515  405  675]	[405 885 405 675]
562.758	0.2	1001365	1001600	BlankScreen	ANTI	83	4	False	red	180	[1035 1515  405  675]	[405 885 405 675]
562.993	1.0	1001600	1002600	ELCue	ANTI	83	4	False	red	180	[1035 1515  405  675]	[405 885 405 675]
564.38	6.0	1002987	1009019	ShowFixation	VGS	84	4	False	lime	600	[1350 1830  405  675]	[ 90 570 405 675]
570.412	0.2	1009019	1009258	BlankScreen	VGS	84	4	False	lime	600	[1350 1830  405  675]	[ 90 570 405 675]
570.651	1.0	1009258	1010258	ELCue	VGS	84	4	False	lime	600	[1350 1830  405  675]	[ 90 570 405 675]
572.058	2.0	1010665	1012693	ShowFixation	ANTI	85	4	False	red	600	[ 90 570 405 675]	[1350 1830  405  675]
574.086	0.2	1012693	1012928	BlankScreen	ANTI	85	4	False	red	600	[ 90 570 405 675]	[1350 1830  405  675]
574.321	1.0	1012928	1013928	ELCue	ANTI	85	4	False	red	600	[ 90 570 405 675]	[1350 1830  405  675]
575.729	2.0	1014336	1016363	ShowFixation	VGS	86	4	False	lime	40	[ 90 570 405 675]	[1350 1830  405  675]
577.756	0.2	1016363	1016598	BlankScreen	VGS	86	4	False	lime	40	[ 90 570 405 675]	[1350 1830  405  675]
577.991	1.0	1016598	1017598	ELCue	VGS	86	4	False	lime	40	[ 90 570 405 675]	[1350 1830  405  675]
579.397	6.0	1018004	1024033	ShowFixation	ANTI	87	4	False	red	40	[1350 1830  405  675]	[ 90 570 405 675]
585.426	0.2	1024033	1024273	BlankScreen	ANTI	87	4	False	red	40	[1350 1830  405  675]	[ 90 570 405 675]
585.666	1.0	1024273	1025273	ELCue	ANTI	87	4	False	red	40	[1350 1830  405  675]	[ 90 570 405 675]
587.072	2.0	1025679	1027708	ShowFixation	VGS	88	4	False	lime	40	[ 90 570 405 675]	[1350 1830  405  675]
589.101	0.2	1027708	1027943	BlankScreen	VGS	88	4	False	lime	40	[ 90 570 405 675]	[1350 1830  405  675]
589.336	1.0	1027943	1028943	ELCue	VGS	88	4	False	lime	40	[ 90 570 405 675]	[1350 1830  405  675]
590.722	6.0	1029329	1035361	ShowFixation	VGS	89	4	False	lime	40	[ 90 570 405 675]	[1350 1830  405  675]
596.754	0.2	1035361	1035600	BlankScreen	VGS	89	4	False	lime	40	[ 90 570 405 675]	[1350 1830  405  675]
596.993	1.0	1035600	1036600	ELCue	VGS	89	4	False	lime	40	[ 90 570 405 675]	[1350 1830  405  675]
598.395	6.0	1037002	1043035	ShowFixation	ANTI	90	4	False	red	600	[ 90 570 405 675]	[1350 1830  405  675]
604.428	0.2	1043035	1043275	BlankScreen	ANTI	90	4	False	red	600	[ 90 570 405 675]	[1350 1830  405  675]
604.669	1.0	1043276	1044276	ELCue	ANTI	90	4	False	red	600	[ 90 570 405 675]	[1350 1830  405  675]
606.079	2.0	1044686	1046710	ShowFixation	ANTI	91	4	False	red	460	[405 885 405 675]	[1035 1515  405  675]
608.104	0.2	1046711	1046946	BlankScreen	ANTI	91	4	False	red	460	[405 885 405 675]	[1035 1515  405  675]
608.339	1.0	1046946	1047946	ELCue	ANTI	91	4	False	red	460	[405 885 405 675]	[1035 1515  405  675]
609.748	2.0	1048355	1050381	ShowFixation	ANTI	92	4	False	red	40	[1350 1830  405  675]	[ 90 570 405 675]
611.774	0.2	1050381	1050616	BlankScreen	ANTI	92	4	False	red	40	[1350 1830  405  675]	[ 90 570 405 675]
612.009	1.0	1050616	1051616	ELCue	ANTI	92	4	False	red	40	[1350 1830  405  675]	[ 90 570 405 675]
613.419	2.0	1052026	1054051	ShowFixation	ANTI	93	4	False	red	600	[ 90 570 405 675]	[1350 1830  405  675]
615.444	0.2	1054051	1054286	BlankScreen	ANTI	93	4	False	red	600	[ 90 570 405 675]	[1350 1830  405  675]
615.68	1.0	1054287	1055287	ELCue	ANTI	93	4	False	red	600	[ 90 570 405 675]	[1350 1830  405  675]
617.088	6.0	1055695	1061722	ShowFixation	ANTI	94	4	False	red	40	[1350 1830  405  675]	[ 90 570 405 675]
623.115	0.2	1061722	1061961	BlankScreen	ANTI	94	4	False	red	40	[1350 1830  405  675]	[ 90 570 405 675]
623.354	1.0	1061961	1062961	ELCue	ANTI	94	4	False	red	40	[1350 1830  405  675]	[ 90 570 405 675]
624.764	2.0	1063371	1065396	ShowFixation	VGS	95	4	False	lime	600	[1350 1830  405  675]	[ 90 570 405 675]
626.789	0.2	1065396	1065631	BlankScreen	VGS	95	4	False	lime	600	[1350 1830  405  675]	[ 90 570 405 675]
627.024	1.0	1065631	1066631	ELCue	VGS	95	4	False	lime	600	[1350 1830  405  675]	[ 90 570 405 675]
628.428	2.0	1067035	1069066	ShowFixation	ANTI	96	4	False	red	460	[405 885 405 675]	[1035 1515  405  675]
630.459	0.2	1069066	1069301	BlankScreen	ANTI	96	4	False	red	460	[405 885 405 675]	[1035 1515  405  675]
630.694	1.0	1069301	1070301	ELCue	ANTI	96	4	False	red	460	[405 885 405 675]	[1035 1515  405  675]
632.103	2.0	1070710	1072736	ShowFixation	VGS	97	4	False	lime	460	[1035 1515  405  675]	[405 885 405 675]
634.129	0.2	1072736	1072972	BlankScreen	VGS	97	4	False	lime	460	[1035 1515  405  675]	[405 885 405 675]
634.365	1.0	1072972	1073972	ELCue	VGS	97	4	False	lime	460	[1035 1515  405  675]	[405 885 405 675]
635.759	6.0	1074366	1080407	ShowFixation	ANTI	98	4	False	red	460	[405 885 405 675]	[1035 1515  405  675]
641.8	0.2	1080407	1080646	BlankScreen	ANTI	98	4	False	red	460	[405 885 405 675]	[1035 1515  405  675]
642.039	1.0	1080646	1081646	ELCue	ANTI	98	4	False	red	460	[405 885 405 675]	[1035 1515  405  675]
643.449	6.0	1082056	1088081	ShowFixation	ANTI	99	4	False	red	180	[1035 1515  405  675]	[405 885 405 675]
649.474	0.2	1088081	1088320	BlankScreen	ANTI	99	4	False	red	180	[1035 1515  405  675]	[405 885 405 675]
649.713	1.0	1088320	1089320	ELCue	ANTI	99	4	False	red	180	[1035 1515  405  675]	[405 885 405 675]
651.122	2.0	1089729	1091755	ShowFixation	VGS	100	4	False	lime	180	[405 885 405 675]	[1035 1515  405  675]
653.148	0.2	1091755	1091991	BlankScreen	VGS	100	4	False	lime	180	[405 885 405 675]	[1035 1515  405  675]
653.384	1.0	1091991	1092991	ELCue	VGS	100	4	False	lime	180	[405 885 405 675]	[1035 1515  405  675]
654.79	6.0	1093397	1099425	ShowFixation	VGS	101	4	False	lime	600	[1350 1830  405  675]	[ 90 570 405 675]
660.818	0.2	1099425	1099665	BlankScreen	VGS	101	4	False	lime	600	[1350 1830  405  675]	[ 90 570 405 675]
661.058	1.0	1099665	1100665	ELCue	VGS	101	4	False	lime	600	[1350 1830  405  675]	[ 90 570 405 675]
662.47	2.0	1101077	1103116	ShowFixation	VGS	102	4	False	lime	460	[1035 1515  405  675]	[405 885 405 675]
664.509	0.2	1103116	1103352	BlankScreen	VGS	102	4	False	lime	460	[1035 1515  405  675]	[405 885 405 675]
664.745	1.0	1103352	1104352	ELCue	VGS	102	4	False	lime	460	[1035 1515  405  675]	[405 885 405 675]
666.153	2.0	1104760	1106787	ShowFixation	VGS	103	4	False	lime	600	[1350 1830  405  675]	[ 90 570 405 675]
668.18	0.2	1106787	1107022	BlankScreen	VGS	103	4	False	lime	600	[1350 1830  405  675]	[ 90 570 405 675]
668.415	1.0	1107022	1108022	ELCue	VGS	103	4	False	lime	600	[1350 1830  405  675]	[ 90 570 405 675]
669.822	6.0	1108429	1114457	ShowFixation	VGS	104	4	False	lime	180	[405 885 405 675]	[1035 1515  405  675]
675.85	0.2	1114457	1114696	BlankScreen	VGS	104	4	False	lime	180	[405 885 405 675]	[1035 1515  405  675]
676.089	1.0	1114696	1115696	ELCue	VGS	104	4	False	lime	180	[405 885 405 675]	[1035 1515  405  675]
677.495	6.0	1116102	1122131	ShowFixation	VGS	105	4	False	lime	460	[1035 1515  405  675]	[405 885 405 675]
683.524	0.2	1122131	1122370	BlankScreen	VGS	105	4	False	lime	460	[1035 1515  405  675]	[405 885 405 675]
683.763	1.0	1122370	1123370	ELCue	VGS	105	4	False	lime	460	[1035 1515  405  675]	[405 885 405 675]
685.172	6.0	1123779	1129805	ShowFixation	VGS	106	4	False	lime	460	[1035 1515  405  675]	[405 885 405 675]
691.198	0.2	1129805	1130045	BlankScreen	VGS	106	4	False	lime	460	[1035 1515  405  675]	[405 885 405 675]
691.438	1.0	1130045	1131045	ELCue	VGS	106	4	False	lime	460	[1035 1515  405  675]	[405 885 405 675]
692.844	6.0	1131451	1137480	ShowFixation	VGS	107	4	False	lime	40	[ 90 570 405 675]	[1350 1830  405  675]
698.873	0.2	1137480	1137719	BlankScreen	VGS	107	4	False	lime	40	[ 90 570 405 675]	[1350 1830  405  675]
699.112	1.0	1137719	1138719	ELCue	VGS	107	4	False	lime	40	[ 90 570 405 675]	[1350 1830  405  675]
700.522	2.0	1139129	1141154	ShowFixation	VGS	108	4	False	lime	180	[405 885 405 675]	[1035 1515  405  675]
702.547	0.2	1141154	1141389	BlankScreen	VGS	108	4	False	lime	180	[405 885 405 675]	[1035 1515  405  675]
702.782	1.0	1141389	1142389	ELCue	VGS	108	4	False	lime	180	[405 885 405 675]	[1035 1515  405  675]
704.192	6.0	1142799	1148824	ShowFixation	VGS	109	4	False	lime	180	[405 885 405 675]	[1035 1515  405  675]
710.217	0.2	1148824	1149063	BlankScreen	VGS	109	4	False	lime	180	[405 885 405 675]	[1035 1515  405  675]
710.456	1.0	1149063	1150063	ELCue	VGS	109	4	False	lime	180	[405 885 405 675]	[1035 1515  405  675]
711.865	2.0	1150472	1152499	ShowFixation	ANTI	110	4	False	red	180	[1035 1515  405  675]	[405 885 405 675]
713.892	0.2	1152499	1152734	BlankScreen	ANTI	110	4	False	red	180	[1035 1515  405  675]	[405 885 405 675]
714.127	1.0	1152734	1153734	ELCue	ANTI	110	4	False	red	180	[1035 1515  405  675]	[405 885 405 675]
715.533	6.0	1154140	1160169	ShowFixation	ANTI	111	4	False	red	180	[1035 1515  405  675]	[405 885 405 675]
721.562	0.2	1160169	1160408	BlankScreen	ANTI	111	4	False	red	180	[1035 1515  405  675]	[405 885 405 675]
721.801	1.0	1160408	1161408	ELCue	ANTI	111	4	False	red	180	[1035 1515  405  675]	[405 885 405 675]
723.206	2.0	1161813	1163843	ShowFixation	ANTI	112	4	False	red	40	[1350 1830  405  675]	[ 90 570 405 675]
725.236	0.2	1163843	1164079	BlankScreen	ANTI	112	4	False	red	40	[1350 1830  405  675]	[ 90 570 405 675]
725.472	1.0	1164079	1165079	ELCue	ANTI	112	4	False	red	40	[1350 1830  405  675]	[ 90 570 405 675]
