onset	duration	startTime	stopTime	eventIdentifier	trial_type	trial_number	block_number	is_practice	fixation_color	cue_side	aoi_correct	aoi_incorrect
0.141	2.0	1062019	1068054	ShowFixation	VGS	1	1	True	lime	180	[1350 1830  405  675]	[ 90 570 405 675]
6.176	0.2	1068054	1068293	BlankScreen	VGS	1	1	True	lime	180	[1350 1830  405  675]	[ 90 570 405 675]
6.415	1.0	1068293	1069334	ELCue	VGS	1	1	True	lime	180	[1350 1830  405  675]	[ 90 570 405 675]
7.842	2.0	1069720	1072379	ShowFixation	ANTI	2	1	True	red	40	[405 885 405 675]	[1035 1515  405  675]
10.501	0.2	1072379	1072614	BlankScreen	ANTI	2	1	True	red	40	[405 885 405 675]	[1035 1515  405  675]
10.736	1.0	1072614	1073655	ELCue	ANTI	2	1	True	red	40	[405 885 405 675]	[1035 1515  405  675]
12.179	2.0	1074057	1080700	ShowFixation	VGS	3	1	True	lime	460	[405 885 405 675]	[1035 1515  405  675]
18.822	0.2	1080700	1080939	BlankScreen	VGS	3	1	True	lime	460	[405 885 405 675]	[1035 1515  405  675]
19.061	1.0	1080939	1081976	ELCue	VGS	3	1	True	lime	460	[405 885 405 675]	[1035 1515  405  675]
20.47	2.0	1082348	1084991	ShowFixation	VGS	4	1	True	lime	600	[ 90 570 405 675]	[1350 1830  405  675]
23.113	0.2	1084991	1085210	BlankScreen	VGS	4	1	True	lime	600	[ 90 570 405 675]	[1350 1830  405  675]
23.332	1.0	1085210	1086237	ELCue	VGS	4	1	True	lime	600	[ 90 570 405 675]	[1350 1830  405  675]
24.762	6.0	1086640	1089279	ShowFixation	VGS	5	1	True	lime	40	[1350 1830  405  675]	[ 90 570 405 675]
27.401	0.2	1089279	1089514	BlankScreen	VGS	5	1	True	lime	40	[1350 1830  405  675]	[ 90 570 405 675]
27.636	1.0	1089514	1090555	ELCue	VGS	5	1	True	lime	40	[1350 1830  405  675]	[ 90 570 405 675]
29.083	6.0	1090961	1097600	ShowFixation	VGS	6	1	True	lime	460	[1350 1830  405  675]	[ 90 570 405 675]
35.722	0.2	1097600	1097839	BlankScreen	VGS	6	1	True	lime	460	[1350 1830  405  675]	[ 90 570 405 675]
35.961	1.0	1097839	1098880	ELCue	VGS	6	1	True	lime	460	[1350 1830  405  675]	[ 90 570 405 675]
37.408	2.0	1099286	1101925	ShowFixation	VGS	7	1	True	lime	40	[ 90 570 405 675]	[1350 1830  405  675]
40.047	0.2	1101925	1102160	BlankScreen	VGS	7	1	True	lime	40	[ 90 570 405 675]	[1350 1830  405  675]
40.282	1.0	1102160	1103201	ELCue	VGS	7	1	True	lime	40	[ 90 570 405 675]	[1350 1830  405  675]
41.728	2.0	1103606	1110246	ShowFixation	ANTI	8	1	True	red	180	[ 90 570 405 675]	[1350 1830  405  675]
48.368	0.2	1110246	1110485	BlankScreen	ANTI	8	1	True	red	180	[ 90 570 405 675]	[1350 1830  405  675]
48.607	1.0	1110485	1111523	ELCue	ANTI	8	1	True	red	180	[ 90 570 405 675]	[1350 1830  405  675]
50.052	6.0	1111930	1118571	ShowFixation	ANTI	9	1	True	red	40	[1035 1515  405  675]	[405 885 405 675]
56.693	0.2	1118571	1118810	BlankScreen	ANTI	9	1	True	red	40	[1035 1515  405  675]	[405 885 405 675]
56.932	1.0	1118810	1119851	ELCue	ANTI	9	1	True	red	40	[1035 1515  405  675]	[405 885 405 675]
58.373	6.0	1120251	1122895	ShowFixation	ANTI	10	1	True	red	460	[405 885 405 675]	[1035 1515  405  675]
61.017	0.2	1122895	1123131	BlankScreen	ANTI	10	1	True	red	460	[405 885 405 675]	[1035 1515  405  675]
61.253	1.0	1123131	1124169	ELCue	ANTI	10	1	True	red	460	[405 885 405 675]	[1035 1515  405  675]
62.676	2.0	1124554	1131216	ShowFixation	ANTI	11	1	True	red	460	[405 885 405 675]	[1035 1515  405  675]
69.338	0.2	1131216	1131456	BlankScreen	ANTI	11	1	True	red	460	[405 885 405 675]	[1035 1515  405  675]
69.578	1.0	1131456	1132496	ELCue	ANTI	11	1	True	red	460	[405 885 405 675]	[1035 1515  405  675]
71.027	6.0	1132905	1139525	ShowFixation	ANTI	12	1	True	red	180	[1035 1515  405  675]	[405 885 405 675]
77.647	0.2	1139525	1139764	BlankScreen	ANTI	12	1	True	red	180	[1035 1515  405  675]	[405 885 405 675]
77.886	1.0	1139764	1140802	ELCue	ANTI	12	1	True	red	180	[1035 1515  405  675]	[405 885 405 675]
79.332	6.0	1141210	1143849	ShowFixation	VGS	13	1	True	lime	600	[1350 1830  405  675]	[ 90 570 405 675]
81.971	0.2	1143849	1144085	BlankScreen	VGS	13	1	True	lime	600	[1350 1830  405  675]	[ 90 570 405 675]
82.207	1.0	1144085	1145123	ELCue	VGS	13	1	True	lime	600	[1350 1830  405  675]	[ 90 570 405 675]
83.652	6.0	1145530	1148170	ShowFixation	ANTI	14	1	True	red	600	[1035 1515  405  675]	[405 885 405 675]
86.292	0.2	1148170	1148406	BlankScreen	ANTI	14	1	True	red	600	[1035 1515  405  675]	[405 885 405 675]
86.528	1.0	1148406	1149447	ELCue	ANTI	14	1	True	red	600	[1035 1515  405  675]	[405 885 405 675]
87.975	6.0	1149853	1152491	ShowFixation	VGS	15	1	True	lime	180	[1035 1515  405  675]	[405 885 405 675]
90.614	0.2	1152492	1152727	BlankScreen	VGS	15	1	True	lime	180	[1035 1515  405  675]	[405 885 405 675]
90.849	1.0	1152727	1153768	ELCue	VGS	15	1	True	lime	180	[1035 1515  405  675]	[405 885 405 675]
92.296	2.0	1154174	1160812	ShowFixation	ANTI	16	1	True	red	600	[ 90 570 405 675]	[1350 1830  405  675]
98.935	0.2	1160813	1161053	BlankScreen	ANTI	16	1	True	red	600	[ 90 570 405 675]	[1350 1830  405  675]
99.175	1.0	1161053	1162090	ELCue	ANTI	16	1	True	red	600	[ 90 570 405 675]	[1350 1830  405  675]
127.121	6.0	1188999	1195030	ShowFixation	VGS	17	2	False	lime	460	[405 885 405 675]	[1035 1515  405  675]
133.152	0.2	1195030	1195270	BlankScreen	VGS	17	2	False	lime	460	[405 885 405 675]	[1035 1515  405  675]
133.392	1.0	1195270	1196270	ELCue	VGS	17	2	False	lime	460	[405 885 405 675]	[1035 1515  405  675]
134.796	2.0	1196674	1202705	ShowFixation	VGS	18	2	False	lime	460	[1350 1830  405  675]	[ 90 570 405 675]
140.827	0.2	1202705	1202944	BlankScreen	VGS	18	2	False	lime	460	[1350 1830  405  675]	[ 90 570 405 675]
141.066	1.0	1202944	1203944	ELCue	VGS	18	2	False	lime	460	[1350 1830  405  675]	[ 90 570 405 675]
142.467	2.0	1204345	1206379	ShowFixation	VGS	19	2	False	lime	460	[1035 1515  405  675]	[405 885 405 675]
144.501	0.2	1206379	1206614	BlankScreen	VGS	19	2	False	lime	460	[1035 1515  405  675]	[405 885 405 675]
144.736	1.0	1206614	1207614	ELCue	VGS	19	2	False	lime	460	[1035 1515  405  675]	[405 885 405 675]
146.146	2.0	1208024	1214049	ShowFixation	ANTI	20	2	False	red	180	[1035 1515  405  675]	[405 885 405 675]
152.171	0.2	1214049	1214288	BlankScreen	ANTI	20	2	False	red	180	[1035 1515  405  675]	[405 885 405 675]
152.41	1.0	1214288	1215288	ELCue	ANTI	20	2	False	red	180	[1035 1515  405  675]	[405 885 405 675]
153.818	2.0	1215696	1221723	ShowFixation	VGS	21	2	False	lime	180	[1035 1515  405  675]	[405 885 405 675]
159.845	0.2	1221723	1221963	BlankScreen	VGS	21	2	False	lime	180	[1035 1515  405  675]	[405 885 405 675]
160.085	1.0	1221963	1222963	ELCue	VGS	21	2	False	lime	180	[1035 1515  405  675]	[405 885 405 675]
161.494	2.0	1223372	1225398	ShowFixation	ANTI	22	2	False	red	600	[1035 1515  405  675]	[405 885 405 675]
163.52	0.2	1225398	1225633	BlankScreen	ANTI	22	2	False	red	600	[1035 1515  405  675]	[405 885 405 675]
163.755	1.0	1225633	1226633	ELCue	ANTI	22	2	False	red	600	[1035 1515  405  675]	[405 885 405 675]
165.163	2.0	1227041	1233068	ShowFixation	VGS	23	2	False	lime	40	[ 90 570 405 675]	[1350 1830  405  675]
171.19	0.2	1233068	1233307	BlankScreen	VGS	23	2	False	lime	40	[ 90 570 405 675]	[1350 1830  405  675]
171.429	1.0	1233307	1234307	ELCue	VGS	23	2	False	lime	40	[ 90 570 405 675]	[1350 1830  405  675]
172.841	2.0	1234719	1240759	ShowFixation	ANTI	24	2	False	red	40	[405 885 405 675]	[1035 1515  405  675]
178.881	0.2	1240759	1240998	BlankScreen	ANTI	24	2	False	red	40	[405 885 405 675]	[1035 1515  405  675]
179.12	1.0	1240998	1241998	ELCue	ANTI	24	2	False	red	40	[405 885 405 675]	[1035 1515  405  675]
180.515	2.0	1242393	1244433	ShowFixation	ANTI	25	2	False	red	40	[405 885 405 675]	[1035 1515  405  675]
182.555	0.2	1244433	1244668	BlankScreen	ANTI	25	2	False	red	40	[405 885 405 675]	[1035 1515  405  675]
182.79	1.0	1244668	1245668	ELCue	ANTI	25	2	False	red	40	[405 885 405 675]	[1035 1515  405  675]
184.197	6.0	1246075	1248103	ShowFixation	ANTI	26	2	False	red	460	[1350 1830  405  675]	[ 90 570 405 675]
186.225	0.2	1248103	1248339	BlankScreen	ANTI	26	2	False	red	460	[1350 1830  405  675]	[ 90 570 405 675]
186.461	1.0	1248339	1249339	ELCue	ANTI	26	2	False	red	460	[1350 1830  405  675]	[ 90 570 405 675]
187.875	6.0	1249753	1255790	ShowFixation	ANTI	27	2	False	red	600	[1350 1830  405  675]	[ 90 570 405 675]
193.912	0.2	1255790	1256030	BlankScreen	ANTI	27	2	False	red	600	[1350 1830  405  675]	[ 90 570 405 675]
194.152	1.0	1256030	1257030	ELCue	ANTI	27	2	False	red	600	[1350 1830  405  675]	[ 90 570 405 675]
195.565	6.0	1257443	1259481	ShowFixation	ANTI	28	2	False	red	180	[1350 1830  405  675]	[ 90 570 405 675]
197.603	0.2	1259481	1259717	BlankScreen	ANTI	28	2	False	red	180	[1350 1830  405  675]	[ 90 570 405 675]
197.839	1.0	1259717	1260717	ELCue	ANTI	28	2	False	red	180	[1350 1830  405  675]	[ 90 570 405 675]
199.25	6.0	1261128	1267168	ShowFixation	VGS	29	2	False	lime	180	[1035 1515  405  675]	[405 885 405 675]
205.29	0.2	1267168	1267408	BlankScreen	VGS	29	2	False	lime	180	[1035 1515  405  675]	[405 885 405 675]
205.53	1.0	1267408	1268408	ELCue	VGS	29	2	False	lime	180	[1035 1515  405  675]	[405 885 405 675]
206.938	2.0	1268816	1274843	ShowFixation	ANTI	30	2	False	red	460	[ 90 570 405 675]	[1350 1830  405  675]
212.965	0.2	1274843	1275083	BlankScreen	ANTI	30	2	False	red	460	[ 90 570 405 675]	[1350 1830  405  675]
213.205	1.0	1275083	1276083	ELCue	ANTI	30	2	False	red	460	[ 90 570 405 675]	[1350 1830  405  675]
214.612	6.0	1276490	1282518	ShowFixation	VGS	31	2	False	lime	600	[1350 1830  405  675]	[ 90 570 405 675]
220.64	0.2	1282518	1282757	BlankScreen	VGS	31	2	False	lime	600	[1350 1830  405  675]	[ 90 570 405 675]
220.879	1.0	1282757	1283757	ELCue	VGS	31	2	False	lime	600	[1350 1830  405  675]	[ 90 570 405 675]
222.255	6.0	1284133	1286159	ShowFixation	ANTI	32	2	False	red	180	[ 90 570 405 675]	[1350 1830  405  675]
224.281	0.2	1286159	1286394	BlankScreen	ANTI	32	2	False	red	180	[ 90 570 405 675]	[1350 1830  405  675]
224.516	1.0	1286394	1287394	ELCue	ANTI	32	2	False	red	180	[ 90 570 405 675]	[1350 1830  405  675]
225.925	6.0	1287803	1289829	ShowFixation	VGS	33	2	False	lime	180	[405 885 405 675]	[1035 1515  405  675]
227.951	0.2	1289829	1290064	BlankScreen	VGS	33	2	False	lime	180	[405 885 405 675]	[1035 1515  405  675]
228.186	1.0	1290064	1291064	ELCue	VGS	33	2	False	lime	180	[405 885 405 675]	[1035 1515  405  675]
229.592	6.0	1291470	1293499	ShowFixation	ANTI	34	2	False	red	600	[ 90 570 405 675]	[1350 1830  405  675]
231.621	0.2	1293499	1293735	BlankScreen	ANTI	34	2	False	red	600	[ 90 570 405 675]	[1350 1830  405  675]
231.857	1.0	1293735	1294735	ELCue	ANTI	34	2	False	red	600	[ 90 570 405 675]	[1350 1830  405  675]
233.262	2.0	1295140	1301169	ShowFixation	ANTI	35	2	False	red	600	[1035 1515  405  675]	[405 885 405 675]
239.291	0.2	1301169	1301409	BlankScreen	ANTI	35	2	False	red	600	[1035 1515  405  675]	[405 885 405 675]
239.531	1.0	1301409	1302409	ELCue	ANTI	35	2	False	red	600	[1035 1515  405  675]	[405 885 405 675]
240.94	6.0	1302818	1304844	ShowFixation	VGS	36	2	False	lime	460	[1035 1515  405  675]	[405 885 405 675]
242.966	0.2	1304844	1305079	BlankScreen	VGS	36	2	False	lime	460	[1035 1515  405  675]	[405 885 405 675]
243.201	1.0	1305079	1306079	ELCue	VGS	36	2	False	lime	460	[1035 1515  405  675]	[405 885 405 675]
244.612	2.0	1306490	1312531	ShowFixation	VGS	37	2	False	lime	600	[ 90 570 405 675]	[1350 1830  405  675]
250.653	0.2	1312531	1312770	BlankScreen	VGS	37	2	False	lime	600	[ 90 570 405 675]	[1350 1830  405  675]
250.892	1.0	1312770	1313770	ELCue	VGS	37	2	False	lime	600	[ 90 570 405 675]	[1350 1830  405  675]
252.3	6.0	1314178	1316205	ShowFixation	VGS	38	2	False	lime	40	[1350 1830  405  675]	[ 90 570 405 675]
254.327	0.2	1316205	1316440	BlankScreen	VGS	38	2	False	lime	40	[1350 1830  405  675]	[ 90 570 405 675]
254.562	1.0	1316440	1317440	ELCue	VGS	38	2	False	lime	40	[1350 1830  405  675]	[ 90 570 405 675]
255.969	6.0	1317847	1323875	ShowFixation	VGS	39	2	False	lime	40	[405 885 405 675]	[1035 1515  405  675]
261.997	0.2	1323875	1324114	BlankScreen	VGS	39	2	False	lime	40	[405 885 405 675]	[1035 1515  405  675]
262.236	1.0	1324114	1325114	ELCue	VGS	39	2	False	lime	40	[405 885 405 675]	[1035 1515  405  675]
263.645	2.0	1325523	1327549	ShowFixation	ANTI	40	2	False	red	180	[1350 1830  405  675]	[ 90 570 405 675]
265.671	0.2	1327549	1327785	BlankScreen	ANTI	40	2	False	red	180	[1350 1830  405  675]	[ 90 570 405 675]
265.907	1.0	1327785	1328785	ELCue	ANTI	40	2	False	red	180	[1350 1830  405  675]	[ 90 570 405 675]
267.295	6.0	1329173	1331203	ShowFixation	ANTI	41	2	False	red	460	[405 885 405 675]	[1035 1515  405  675]
269.325	0.2	1331203	1331438	BlankScreen	ANTI	41	2	False	red	460	[405 885 405 675]	[1035 1515  405  675]
269.56	1.0	1331438	1332438	ELCue	ANTI	41	2	False	red	460	[405 885 405 675]	[1035 1515  405  675]
270.969	6.0	1332847	1338873	ShowFixation	VGS	42	2	False	lime	600	[405 885 405 675]	[1035 1515  405  675]
276.995	0.2	1338873	1339113	BlankScreen	VGS	42	2	False	lime	600	[405 885 405 675]	[1035 1515  405  675]
277.235	1.0	1339113	1340113	ELCue	VGS	42	2	False	lime	600	[405 885 405 675]	[1035 1515  405  675]
278.642	6.0	1340520	1342548	ShowFixation	ANTI	43	2	False	red	40	[ 90 570 405 675]	[1350 1830  405  675]
280.67	0.2	1342548	1342783	BlankScreen	ANTI	43	2	False	red	40	[ 90 570 405 675]	[1350 1830  405  675]
280.905	1.0	1342783	1343783	ELCue	ANTI	43	2	False	red	40	[ 90 570 405 675]	[1350 1830  405  675]
282.308	2.0	1344186	1350218	ShowFixation	VGS	44	2	False	lime	600	[1350 1830  405  675]	[ 90 570 405 675]
288.34	0.2	1350218	1350457	BlankScreen	VGS	44	2	False	lime	600	[1350 1830  405  675]	[ 90 570 405 675]
288.579	1.0	1350457	1351457	ELCue	VGS	44	2	False	lime	600	[1350 1830  405  675]	[ 90 570 405 675]
289.951	2.0	1351829	1353859	ShowFixation	ANTI	45	2	False	red	460	[405 885 405 675]	[1035 1515  405  675]
291.981	0.2	1353859	1354094	BlankScreen	ANTI	45	2	False	red	460	[405 885 405 675]	[1035 1515  405  675]
292.216	1.0	1354094	1355094	ELCue	ANTI	45	2	False	red	460	[405 885 405 675]	[1035 1515  405  675]
293.62	6.0	1355498	1357529	ShowFixation	ANTI	46	2	False	red	40	[1035 1515  405  675]	[405 885 405 675]
295.651	0.2	1357529	1357764	BlankScreen	ANTI	46	2	False	red	40	[1035 1515  405  675]	[405 885 405 675]
295.886	1.0	1357764	1358764	ELCue	ANTI	46	2	False	red	40	[1035 1515  405  675]	[405 885 405 675]
297.295	2.0	1359173	1365199	ShowFixation	VGS	47	2	False	lime	40	[ 90 570 405 675]	[1350 1830  405  675]
303.321	0.2	1365199	1365439	BlankScreen	VGS	47	2	False	lime	40	[ 90 570 405 675]	[1350 1830  405  675]
303.561	1.0	1365439	1366439	ELCue	VGS	47	2	False	lime	40	[ 90 570 405 675]	[1350 1830  405  675]
304.936	2.0	1366814	1368840	ShowFixation	VGS	48	2	False	lime	180	[ 90 570 405 675]	[1350 1830  405  675]
306.962	0.2	1368840	1369075	BlankScreen	VGS	48	2	False	lime	180	[ 90 570 405 675]	[1350 1830  405  675]
307.197	1.0	1369075	1370075	ELCue	VGS	48	2	False	lime	180	[ 90 570 405 675]	[1350 1830  405  675]
354.854	6.0	1416732	1418757	ShowFixation	ANTI	49	3	False	red	600	[1350 1830  405  675]	[ 90 570 405 675]
356.879	0.2	1418757	1418992	BlankScreen	ANTI	49	3	False	red	600	[1350 1830  405  675]	[ 90 570 405 675]
357.114	1.0	1418992	1419992	ELCue	ANTI	49	3	False	red	600	[1350 1830  405  675]	[ 90 570 405 675]
358.522	2.0	1420400	1426427	ShowFixation	VGS	50	3	False	lime	180	[1035 1515  405  675]	[405 885 405 675]
364.549	0.2	1426427	1426667	BlankScreen	VGS	50	3	False	lime	180	[1035 1515  405  675]	[405 885 405 675]
364.789	1.0	1426667	1427667	ELCue	VGS	50	3	False	lime	180	[1035 1515  405  675]	[405 885 405 675]
366.198	2.0	1428076	1430102	ShowFixation	ANTI	51	3	False	red	40	[405 885 405 675]	[1035 1515  405  675]
368.224	0.2	1430102	1430337	BlankScreen	ANTI	51	3	False	red	40	[405 885 405 675]	[1035 1515  405  675]
368.459	1.0	1430337	1431337	ELCue	ANTI	51	3	False	red	40	[405 885 405 675]	[1035 1515  405  675]
369.865	6.0	1431743	1437772	ShowFixation	ANTI	52	3	False	red	180	[1035 1515  405  675]	[405 885 405 675]
375.894	0.2	1437772	1438011	BlankScreen	ANTI	52	3	False	red	180	[1035 1515  405  675]	[405 885 405 675]
376.133	1.0	1438011	1439011	ELCue	ANTI	52	3	False	red	180	[1035 1515  405  675]	[405 885 405 675]
377.54	2.0	1439418	1441446	ShowFixation	VGS	53	3	False	lime	600	[1350 1830  405  675]	[ 90 570 405 675]
379.568	0.2	1441446	1441681	BlankScreen	VGS	53	3	False	lime	600	[1350 1830  405  675]	[ 90 570 405 675]
379.803	1.0	1441681	1442681	ELCue	VGS	53	3	False	lime	600	[1350 1830  405  675]	[ 90 570 405 675]
381.213	6.0	1443091	1449116	ShowFixation	ANTI	54	3	False	red	600	[ 90 570 405 675]	[1350 1830  405  675]
387.238	0.2	1449116	1449356	BlankScreen	ANTI	54	3	False	red	600	[ 90 570 405 675]	[1350 1830  405  675]
387.478	1.0	1449356	1450356	ELCue	ANTI	54	3	False	red	600	[ 90 570 405 675]	[1350 1830  405  675]
388.886	2.0	1450764	1456791	ShowFixation	ANTI	55	3	False	red	180	[1350 1830  405  675]	[ 90 570 405 675]
394.913	0.2	1456791	1457030	BlankScreen	ANTI	55	3	False	red	180	[1350 1830  405  675]	[ 90 570 405 675]
395.152	1.0	1457030	1458030	ELCue	ANTI	55	3	False	red	180	[1350 1830  405  675]	[ 90 570 405 675]
396.557	6.0	1458435	1460465	ShowFixation	VGS	56	3	False	lime	40	[1035 1515  405  675]	[405 885 405 675]
398.587	0.2	1460465	1460700	BlankScreen	VGS	56	3	False	lime	40	[1035 1515  405  675]	[405 885 405 675]
398.822	1.0	1460700	1461700	ELCue	VGS	56	3	False	lime	40	[1035 1515  405  675]	[405 885 405 675]
400.229	6.0	1462107	1464135	ShowFixation	VGS	57	3	False	lime	180	[1035 1515  405  675]	[405 885 405 675]
402.257	0.2	1464135	1464371	BlankScreen	VGS	57	3	False	lime	180	[1035 1515  405  675]	[405 885 405 675]
402.493	1.0	1464371	1465371	ELCue	VGS	57	3	False	lime	180	[1035 1515  405  675]	[405 885 405 675]
403.887	2.0	1465765	1467805	ShowFixation	VGS	58	3	False	lime	40	[405 885 405 675]	[1035 1515  405  675]
405.927	0.2	1467805	1468041	BlankScreen	VGS	58	3	False	lime	40	[405 885 405 675]	[1035 1515  405  675]
406.163	1.0	1468041	1469041	ELCue	VGS	58	3	False	lime	40	[405 885 405 675]	[1035 1515  405  675]
407.537	2.0	1469415	1471442	ShowFixation	VGS	59	3	False	lime	460	[ 90 570 405 675]	[1350 1830  405  675]
409.564	0.2	1471442	1471678	BlankScreen	VGS	59	3	False	lime	460	[ 90 570 405 675]	[1350 1830  405  675]
409.8	1.0	1471678	1472678	ELCue	VGS	59	3	False	lime	460	[ 90 570 405 675]	[1350 1830  405  675]
411.204	6.0	1473082	1479113	ShowFixation	ANTI	60	3	False	red	460	[405 885 405 675]	[1035 1515  405  675]
417.235	0.2	1479113	1479352	BlankScreen	ANTI	60	3	False	red	460	[405 885 405 675]	[1035 1515  405  675]
417.474	1.0	1479352	1480352	ELCue	ANTI	60	3	False	red	460	[405 885 405 675]	[1035 1515  405  675]
418.887	2.0	1480765	1482804	ShowFixation	ANTI	61	3	False	red	180	[ 90 570 405 675]	[1350 1830  405  675]
420.926	0.2	1482804	1483039	BlankScreen	ANTI	61	3	False	red	180	[ 90 570 405 675]	[1350 1830  405  675]
421.161	1.0	1483039	1484039	ELCue	ANTI	61	3	False	red	180	[ 90 570 405 675]	[1350 1830  405  675]
422.555	2.0	1484433	1486457	ShowFixation	ANTI	62	3	False	red	40	[1035 1515  405  675]	[405 885 405 675]
424.579	0.2	1486457	1486693	BlankScreen	ANTI	62	3	False	red	40	[1035 1515  405  675]	[405 885 405 675]
424.815	1.0	1486693	1487693	ELCue	ANTI	62	3	False	red	40	[1035 1515  405  675]	[405 885 405 675]
426.21	6.0	1488088	1494127	ShowFixation	VGS	63	3	False	lime	600	[1350 1830  405  675]	[ 90 570 405 675]
432.25	0.2	1494128	1494367	BlankScreen	VGS	63	3	False	lime	600	[1350 1830  405  675]	[ 90 570 405 675]
432.489	1.0	1494367	1495367	ELCue	VGS	63	3	False	lime	600	[1350 1830  405  675]	[ 90 570 405 675]
433.885	6.0	1495763	1497802	ShowFixation	VGS	64	3	False	lime	600	[405 885 405 675]	[1035 1515  405  675]
435.924	0.2	1497802	1498037	BlankScreen	VGS	64	3	False	lime	600	[405 885 405 675]	[1035 1515  405  675]
436.159	1.0	1498037	1499037	ELCue	VGS	64	3	False	lime	600	[405 885 405 675]	[1035 1515  405  675]
437.572	2.0	1499450	1505490	ShowFixation	VGS	65	3	False	lime	40	[1035 1515  405  675]	[405 885 405 675]
443.612	0.2	1505490	1505729	BlankScreen	VGS	65	3	False	lime	40	[1035 1515  405  675]	[405 885 405 675]
443.851	1.0	1505729	1506729	ELCue	VGS	65	3	False	lime	40	[1035 1515  405  675]	[405 885 405 675]
445.26	2.0	1507138	1513164	ShowFixation	VGS	66	3	False	lime	460	[ 90 570 405 675]	[1350 1830  405  675]
451.286	0.2	1513164	1513403	BlankScreen	VGS	66	3	False	lime	460	[ 90 570 405 675]	[1350 1830  405  675]
451.525	1.0	1513403	1514403	ELCue	VGS	66	3	False	lime	460	[ 90 570 405 675]	[1350 1830  405  675]
452.936	2.0	1514814	1520855	ShowFixation	ANTI	67	3	False	red	460	[405 885 405 675]	[1035 1515  405  675]
458.977	0.2	1520855	1521094	BlankScreen	ANTI	67	3	False	red	460	[405 885 405 675]	[1035 1515  405  675]
459.216	1.0	1521094	1522094	ELCue	ANTI	67	3	False	red	460	[405 885 405 675]	[1035 1515  405  675]
460.622	2.0	1522500	1524529	ShowFixation	VGS	68	3	False	lime	180	[1350 1830  405  675]	[ 90 570 405 675]
462.651	0.2	1524529	1524764	BlankScreen	VGS	68	3	False	lime	180	[1350 1830  405  675]	[ 90 570 405 675]
462.886	1.0	1524764	1525764	ELCue	VGS	68	3	False	lime	180	[1350 1830  405  675]	[ 90 570 405 675]
464.293	2.0	1526171	1532199	ShowFixation	ANTI	69	3	False	red	600	[405 885 405 675]	[1035 1515  405  675]
470.321	0.2	1532199	1532439	BlankScreen	ANTI	69	3	False	red	600	[405 885 405 675]	[1035 1515  405  675]
470.561	1.0	1532439	1533439	ELCue	ANTI	69	3	False	red	600	[405 885 405 675]	[1035 1515  405  675]
471.969	2.0	1533847	1539874	ShowFixation	ANTI	70	3	False	red	460	[ 90 570 405 675]	[1350 1830  405  675]
477.996	0.2	1539874	1540113	BlankScreen	ANTI	70	3	False	red	460	[ 90 570 405 675]	[1350 1830  405  675]
478.235	1.0	1540113	1541113	ELCue	ANTI	70	3	False	red	460	[ 90 570 405 675]	[1350 1830  405  675]
479.642	6.0	1541520	1547548	ShowFixation	VGS	71	3	False	lime	460	[1035 1515  405  675]	[405 885 405 675]
485.67	0.2	1547548	1547787	BlankScreen	VGS	71	3	False	lime	460	[1035 1515  405  675]	[405 885 405 675]
485.909	1.0	1547787	1548787	ELCue	VGS	71	3	False	lime	460	[1035 1515  405  675]	[405 885 405 675]
487.32	6.0	1549198	1551239	ShowFixation	ANTI	72	3	False	red	460	[1350 1830  405  675]	[ 90 570 405 675]
489.361	0.2	1551239	1551474	BlankScreen	ANTI	72	3	False	red	460	[1350 1830  405  675]	[ 90 570 405 675]
489.596	1.0	1551474	1552474	ELCue	ANTI	72	3	False	red	460	[1350 1830  405  675]	[ 90 570 405 675]
490.985	6.0	1552863	1558892	ShowFixation	ANTI	73	3	False	red	180	[1350 1830  405  675]	[ 90 570 405 675]
497.014	0.2	1558892	1559132	BlankScreen	ANTI	73	3	False	red	180	[1350 1830  405  675]	[ 90 570 405 675]
497.254	1.0	1559132	1560132	ELCue	ANTI	73	3	False	red	180	[1350 1830  405  675]	[ 90 570 405 675]
498.664	6.0	1560542	1566583	ShowFixation	VGS	74	3	False	lime	460	[ 90 570 405 675]	[1350 1830  405  675]
504.705	0.2	1566583	1566823	BlankScreen	VGS	74	3	False	lime	460	[ 90 570 405 675]	[1350 1830  405  675]
504.945	1.0	1566823	1567823	ELCue	VGS	74	3	False	lime	460	[ 90 570 405 675]	[1350 1830  405  675]
506.352	2.0	1568230	1574258	ShowFixation	ANTI	75	3	False	red	600	[1350 1830  405  675]	[ 90 570 405 675]
512.38	0.2	1574258	1574497	BlankScreen	ANTI	75	3	False	red	600	[1350 1830  405  675]	[ 90 570 405 675]
512.619	1.0	1574497	1575497	ELCue	ANTI	75	3	False	red	600	[1350 1830  405  675]	[ 90 570 405 675]
514.03	6.0	1575908	1577948	ShowFixation	VGS	76	3	False	lime	180	[1035 1515  405  675]	[405 885 405 675]
516.07	0.2	1577948	1578184	BlankScreen	VGS	76	3	False	lime	180	[1035 1515  405  675]	[405 885 405 675]
516.306	1.0	1578184	1579184	ELCue	VGS	76	3	False	lime	180	[1035 1515  405  675]	[405 885 405 675]
517.675	2.0	1579553	1581585	ShowFixation	VGS	77	3	False	lime	600	[ 90 570 405 675]	[1350 1830  405  675]
519.707	0.2	1581585	1581821	BlankScreen	VGS	77	3	False	lime	600	[ 90 570 405 675]	[1350 1830  405  675]
519.943	1.0	1581821	1582821	ELCue	VGS	77	3	False	lime	600	[ 90 570 405 675]	[1350 1830  405  675]
521.311	6.0	1583189	1585222	ShowFixation	ANTI	78	3	False	red	40	[405 885 405 675]	[1035 1515  405  675]
523.344	0.2	1585222	1585458	BlankScreen	ANTI	78	3	False	red	40	[405 885 405 675]	[1035 1515  405  675]
523.58	1.0	1585458	1586458	ELCue	ANTI	78	3	False	red	40	[405 885 405 675]	[1035 1515  405  675]
524.987	6.0	1586865	1588893	ShowFixation	ANTI	79	3	False	red	40	[ 90 570 405 675]	[1350 1830  405  675]
527.015	0.2	1588893	1589128	BlankScreen	ANTI	79	3	False	red	40	[ 90 570 405 675]	[1350 1830  405  675]
527.25	1.0	1589128	1590128	ELCue	ANTI	79	3	False	red	40	[ 90 570 405 675]	[1350 1830  405  675]
528.653	6.0	1590531	1596563	ShowFixation	VGS	80	3	False	lime	40	[405 885 405 675]	[1035 1515  405  675]
534.685	0.2	1596563	1596802	BlankScreen	VGS	80	3	False	lime	40	[405 885 405 675]	[1035 1515  405  675]
534.924	1.0	1596802	1597802	ELCue	VGS	80	3	False	lime	40	[405 885 405 675]	[1035 1515  405  675]
637.714	2.0	1699592	1705621	ShowFixation	VGS	81	4	False	lime	460	[1350 1830  405  675]	[ 90 570 405 675]
643.743	0.2	1705621	1705861	BlankScreen	VGS	81	4	False	lime	460	[1350 1830  405  675]	[ 90 570 405 675]
643.983	1.0	1705861	1706861	ELCue	VGS	81	4	False	lime	460	[1350 1830  405  675]	[ 90 570 405 675]
645.392	6.0	1707270	1713296	ShowFixation	ANTI	82	4	False	red	180	[ 90 570 405 675]	[1350 1830  405  675]
651.418	0.2	1713296	1713535	BlankScreen	ANTI	82	4	False	red	180	[ 90 570 405 675]	[1350 1830  405  675]
651.657	1.0	1713535	1714535	ELCue	ANTI	82	4	False	red	180	[ 90 570 405 675]	[1350 1830  405  675]
653.071	2.0	1714949	1720987	ShowFixation	VGS	83	4	False	lime	600	[405 885 405 675]	[1035 1515  405  675]
659.109	0.2	1720987	1721226	BlankScreen	VGS	83	4	False	lime	600	[405 885 405 675]	[1035 1515  405  675]
659.348	1.0	1721226	1722226	ELCue	VGS	83	4	False	lime	600	[405 885 405 675]	[1035 1515  405  675]
660.755	6.0	1722633	1728662	ShowFixation	VGS	84	4	False	lime	600	[405 885 405 675]	[1035 1515  405  675]
666.784	0.2	1728662	1728901	BlankScreen	VGS	84	4	False	lime	600	[405 885 405 675]	[1035 1515  405  675]
667.023	1.0	1728901	1729901	ELCue	VGS	84	4	False	lime	600	[405 885 405 675]	[1035 1515  405  675]
668.43	2.0	1730308	1732336	ShowFixation	ANTI	85	4	False	red	40	[405 885 405 675]	[1035 1515  405  675]
670.458	0.2	1732336	1732571	BlankScreen	ANTI	85	4	False	red	40	[405 885 405 675]	[1035 1515  405  675]
670.693	1.0	1732571	1733571	ELCue	ANTI	85	4	False	red	40	[405 885 405 675]	[1035 1515  405  675]
672.082	6.0	1733960	1739990	ShowFixation	VGS	86	4	False	lime	180	[1350 1830  405  675]	[ 90 570 405 675]
678.112	0.2	1739990	1740229	BlankScreen	VGS	86	4	False	lime	180	[1350 1830  405  675]	[ 90 570 405 675]
678.351	1.0	1740229	1741229	ELCue	VGS	86	4	False	lime	180	[1350 1830  405  675]	[ 90 570 405 675]
679.759	2.0	1741637	1743664	ShowFixation	VGS	87	4	False	lime	40	[1035 1515  405  675]	[405 885 405 675]
681.786	0.2	1743664	1743899	BlankScreen	VGS	87	4	False	lime	40	[1035 1515  405  675]	[405 885 405 675]
682.021	1.0	1743899	1744899	ELCue	VGS	87	4	False	lime	40	[1035 1515  405  675]	[405 885 405 675]
683.429	2.0	1745307	1751334	ShowFixation	VGS	88	4	False	lime	460	[1350 1830  405  675]	[ 90 570 405 675]
689.456	0.2	1751334	1751574	BlankScreen	VGS	88	4	False	lime	460	[1350 1830  405  675]	[ 90 570 405 675]
689.696	1.0	1751574	1752574	ELCue	VGS	88	4	False	lime	460	[1350 1830  405  675]	[ 90 570 405 675]
691.103	6.0	1752981	1755008	ShowFixation	VGS	89	4	False	lime	180	[405 885 405 675]	[1035 1515  405  675]
693.13	0.2	1755008	1755244	BlankScreen	VGS	89	4	False	lime	180	[405 885 405 675]	[1035 1515  405  675]
693.366	1.0	1755244	1756244	ELCue	VGS	89	4	False	lime	180	[405 885 405 675]	[1035 1515  405  675]
694.77	6.0	1756648	1762679	ShowFixation	VGS	90	4	False	lime	40	[ 90 570 405 675]	[1350 1830  405  675]
700.801	0.2	1762679	1762918	BlankScreen	VGS	90	4	False	lime	40	[ 90 570 405 675]	[1350 1830  405  675]
701.04	1.0	1762918	1763918	ELCue	VGS	90	4	False	lime	40	[ 90 570 405 675]	[1350 1830  405  675]
702.446	6.0	1764324	1770353	ShowFixation	ANTI	91	4	False	red	460	[1035 1515  405  675]	[405 885 405 675]
708.475	0.2	1770353	1770592	BlankScreen	ANTI	91	4	False	red	460	[1035 1515  405  675]	[405 885 405 675]
708.714	1.0	1770592	1771592	ELCue	ANTI	91	4	False	red	460	[1035 1515  405  675]	[405 885 405 675]
710.123	2.0	1772001	1774027	ShowFixation	ANTI	92	4	False	red	600	[1350 1830  405  675]	[ 90 570 405 675]
712.149	0.2	1774027	1774263	BlankScreen	ANTI	92	4	False	red	600	[1350 1830  405  675]	[ 90 570 405 675]
712.385	1.0	1774263	1775263	ELCue	ANTI	92	4	False	red	600	[1350 1830  405  675]	[ 90 570 405 675]
713.79	6.0	1775668	1777698	ShowFixation	ANTI	93	4	False	red	460	[405 885 405 675]	[1035 1515  405  675]
715.82	0.2	1777698	1777933	BlankScreen	ANTI	93	4	False	red	460	[405 885 405 675]	[1035 1515  405  675]
716.055	1.0	1777933	1778933	ELCue	ANTI	93	4	False	red	460	[405 885 405 675]	[1035 1515  405  675]
717.457	2.0	1779335	1785368	ShowFixation	ANTI	94	4	False	red	180	[1035 1515  405  675]	[405 885 405 675]
723.49	0.2	1785368	1785607	BlankScreen	ANTI	94	4	False	red	180	[1035 1515  405  675]	[405 885 405 675]
723.729	1.0	1785607	1786607	ELCue	ANTI	94	4	False	red	180	[1035 1515  405  675]	[405 885 405 675]
725.135	6.0	1787013	1789042	ShowFixation	VGS	95	4	False	lime	40	[ 90 570 405 675]	[1350 1830  405  675]
727.164	0.2	1789042	1789277	BlankScreen	VGS	95	4	False	lime	40	[ 90 570 405 675]	[1350 1830  405  675]
727.399	1.0	1789277	1790277	ELCue	VGS	95	4	False	lime	40	[ 90 570 405 675]	[1350 1830  405  675]
728.809	6.0	1790687	1792712	ShowFixation	ANTI	96	4	False	red	600	[ 90 570 405 675]	[1350 1830  405  675]
730.834	0.2	1792712	1792948	BlankScreen	ANTI	96	4	False	red	600	[ 90 570 405 675]	[1350 1830  405  675]
731.07	1.0	1792948	1793948	ELCue	ANTI	96	4	False	red	600	[ 90 570 405 675]	[1350 1830  405  675]
732.459	2.0	1794337	1796366	ShowFixation	ANTI	97	4	False	red	460	[1035 1515  405  675]	[405 885 405 675]
734.488	0.2	1796366	1796601	BlankScreen	ANTI	97	4	False	red	460	[1035 1515  405  675]	[405 885 405 675]
734.723	1.0	1796601	1797601	ELCue	ANTI	97	4	False	red	460	[1035 1515  405  675]	[405 885 405 675]
736.131	2.0	1798009	1800036	ShowFixation	VGS	98	4	False	lime	180	[1350 1830  405  675]	[ 90 570 405 675]
738.158	0.2	1800036	1800272	BlankScreen	VGS	98	4	False	lime	180	[1350 1830  405  675]	[ 90 570 405 675]
738.394	1.0	1800272	1801272	ELCue	VGS	98	4	False	lime	180	[1350 1830  405  675]	[ 90 570 405 675]
739.803	6.0	1801681	1803707	ShowFixation	ANTI	99	4	False	red	180	[1035 1515  405  675]	[405 885 405 675]
741.829	0.2	1803707	1803942	BlankScreen	ANTI	99	4	False	red	180	[1035 1515  405  675]	[405 885 405 675]
742.064	1.0	1803942	1804942	ELCue	ANTI	99	4	False	red	180	[1035 1515  405  675]	[405 885 405 675]
743.435	6.0	1805313	1807343	ShowFixation	ANTI	100	4	False	red	600	[1350 1830  405  675]	[ 90 570 405 675]
745.465	0.2	1807343	1807579	BlankScreen	ANTI	100	4	False	red	600	[1350 1830  405  675]	[ 90 570 405 675]
745.701	1.0	1807579	1808579	ELCue	ANTI	100	4	False	red	600	[1350 1830  405  675]	[ 90 570 405 675]
747.109	2.0	1808987	1811014	ShowFixation	VGS	101	4	False	lime	40	[405 885 405 675]	[1035 1515  405  675]
749.136	0.2	1811014	1811249	BlankScreen	VGS	101	4	False	lime	40	[405 885 405 675]	[1035 1515  405  675]
749.371	1.0	1811249	1812249	ELCue	VGS	101	4	False	lime	40	[405 885 405 675]	[1035 1515  405  675]
750.781	6.0	1812659	1814684	ShowFixation	VGS	102	4	False	lime	600	[1350 1830  405  675]	[ 90 570 405 675]
752.806	0.2	1814684	1814919	BlankScreen	VGS	102	4	False	lime	600	[1350 1830  405  675]	[ 90 570 405 675]
753.041	1.0	1814919	1815919	ELCue	VGS	102	4	False	lime	600	[1350 1830  405  675]	[ 90 570 405 675]
754.45	2.0	1816328	1822354	ShowFixation	ANTI	103	4	False	red	180	[405 885 405 675]	[1035 1515  405  675]
760.476	0.2	1822354	1822594	BlankScreen	ANTI	103	4	False	red	180	[405 885 405 675]	[1035 1515  405  675]
760.716	1.0	1822594	1823594	ELCue	ANTI	103	4	False	red	180	[405 885 405 675]	[1035 1515  405  675]
762.123	2.0	1824001	1826029	ShowFixation	ANTI	104	4	False	red	600	[ 90 570 405 675]	[1350 1830  405  675]
764.151	0.2	1826029	1826264	BlankScreen	ANTI	104	4	False	red	600	[ 90 570 405 675]	[1350 1830  405  675]
764.386	1.0	1826264	1827264	ELCue	ANTI	104	4	False	red	600	[ 90 570 405 675]	[1350 1830  405  675]
765.792	2.0	1827670	1833699	ShowFixation	ANTI	105	4	False	red	40	[1350 1830  405  675]	[ 90 570 405 675]
771.822	0.2	1833700	1833938	BlankScreen	ANTI	105	4	False	red	40	[1350 1830  405  675]	[ 90 570 405 675]
772.061	1.0	1833939	1834939	ELCue	ANTI	105	4	False	red	40	[1350 1830  405  675]	[ 90 570 405 675]
773.465	6.0	1835343	1841374	ShowFixation	ANTI	106	4	False	red	40	[ 90 570 405 675]	[1350 1830  405  675]
779.496	0.2	1841374	1841613	BlankScreen	ANTI	106	4	False	red	40	[ 90 570 405 675]	[1350 1830  405  675]
779.735	1.0	1841613	1842613	ELCue	ANTI	106	4	False	red	40	[ 90 570 405 675]	[1350 1830  405  675]
781.111	6.0	1842989	1849015	ShowFixation	VGS	107	4	False	lime	460	[1035 1515  405  675]	[405 885 405 675]
787.137	0.2	1849015	1849254	BlankScreen	VGS	107	4	False	lime	460	[1035 1515  405  675]	[405 885 405 675]
787.376	1.0	1849254	1850254	ELCue	VGS	107	4	False	lime	460	[1035 1515  405  675]	[405 885 405 675]
788.784	2.0	1850662	1852689	ShowFixation	VGS	108	4	False	lime	180	[ 90 570 405 675]	[1350 1830  405  675]
790.811	0.2	1852689	1852925	BlankScreen	VGS	108	4	False	lime	180	[ 90 570 405 675]	[1350 1830  405  675]
791.047	1.0	1852925	1853925	ELCue	VGS	108	4	False	lime	180	[ 90 570 405 675]	[1350 1830  405  675]
792.455	2.0	1854333	1860359	ShowFixation	VGS	109	4	False	lime	600	[405 885 405 675]	[1035 1515  405  675]
798.481	0.2	1860359	1860599	BlankScreen	VGS	109	4	False	lime	600	[405 885 405 675]	[1035 1515  405  675]
798.721	1.0	1860599	1861599	ELCue	VGS	109	4	False	lime	600	[405 885 405 675]	[1035 1515  405  675]
800.13	2.0	1862008	1864034	ShowFixation	ANTI	110	4	False	red	460	[1035 1515  405  675]	[405 885 405 675]
802.156	0.2	1864034	1864269	BlankScreen	ANTI	110	4	False	red	460	[1035 1515  405  675]	[405 885 405 675]
802.391	1.0	1864269	1865269	ELCue	ANTI	110	4	False	red	460	[1035 1515  405  675]	[405 885 405 675]
803.803	6.0	1865681	1871721	ShowFixation	VGS	111	4	False	lime	460	[ 90 570 405 675]	[1350 1830  405  675]
809.843	0.2	1871721	1871960	BlankScreen	VGS	111	4	False	lime	460	[ 90 570 405 675]	[1350 1830  405  675]
810.082	1.0	1871960	1872960	ELCue	VGS	111	4	False	lime	460	[ 90 570 405 675]	[1350 1830  405  675]
811.472	6.0	1873350	1879378	ShowFixation	ANTI	112	4	False	red	40	[1035 1515  405  675]	[405 885 405 675]
817.5	0.2	1879378	1879618	BlankScreen	ANTI	112	4	False	red	40	[1035 1515  405  675]	[405 885 405 675]
817.74	1.0	1879618	1880618	ELCue	ANTI	112	4	False	red	40	[1035 1515  405  675]	[405 885 405 675]
