onset	duration	startTime	stopTime	eventIdentifier	trial_type	trial_number	block_number	is_practice	fixation_color	cue_side	aoi_correct	aoi_incorrect
0.15	6.0	493864	499898	ShowFixation	VGS	1	1	True	lime	180	[405 885 405 675]	[1035 1515  405  675]
6.184	0.2	499898	500137	BlankScreen	VGS	1	1	True	lime	180	[405 885 405 675]	[1035 1515  405  675]
6.423	1.0	500137	501178	ELCue	VGS	1	1	True	lime	180	[405 885 405 675]	[1035 1515  405  675]
7.882	2.0	501596	504223	ShowFixation	ANTI	2	1	True	red	180	[1035 1515  405  675]	[405 885 405 675]
10.509	0.2	504223	504458	BlankScreen	ANTI	2	1	True	red	180	[1035 1515  405  675]	[405 885 405 675]
10.744	1.0	504458	505495	ELCue	ANTI	2	1	True	red	180	[1035 1515  405  675]	[405 885 405 675]
12.188	2.0	505902	508511	ShowFixation	ANTI	3	1	True	red	600	[ 90 570 405 675]	[1350 1830  405  675]
14.797	0.2	508511	508729	BlankScreen	ANTI	3	1	True	red	600	[ 90 570 405 675]	[1350 1830  405  675]
15.015	1.0	508729	509752	ELCue	ANTI	3	1	True	red	600	[ 90 570 405 675]	[1350 1830  405  675]
16.453	2.0	510167	512798	ShowFixation	VGS	4	1	True	lime	460	[1035 1515  405  675]	[405 885 405 675]
19.084	0.2	512798	513033	BlankScreen	VGS	4	1	True	lime	460	[1035 1515  405  675]	[405 885 405 675]
19.319	1.0	513033	514073	ELCue	VGS	4	1	True	lime	460	[1035 1515  405  675]	[405 885 405 675]
20.777	2.0	514491	517102	ShowFixation	VGS	5	1	True	lime	600	[1350 1830  405  675]	[ 90 570 405 675]
23.388	0.2	517102	517321	BlankScreen	VGS	5	1	True	lime	600	[1350 1830  405  675]	[ 90 570 405 675]
23.607	1.0	517321	518344	ELCue	VGS	5	1	True	lime	600	[1350 1830  405  675]	[ 90 570 405 675]
25.052	6.0	518766	525390	ShowFixation	VGS	6	1	True	lime	460	[1035 1515  405  675]	[405 885 405 675]
31.676	0.2	525390	525629	BlankScreen	VGS	6	1	True	lime	460	[1035 1515  405  675]	[405 885 405 675]
31.915	1.0	525629	526670	ELCue	VGS	6	1	True	lime	460	[1035 1515  405  675]	[405 885 405 675]
33.373	6.0	527087	533715	ShowFixation	ANTI	7	1	True	red	40	[1350 1830  405  675]	[ 90 570 405 675]
40.001	0.2	533715	533954	BlankScreen	ANTI	7	1	True	red	40	[1350 1830  405  675]	[ 90 570 405 675]
40.24	1.0	533954	534995	ELCue	ANTI	7	1	True	red	40	[1350 1830  405  675]	[ 90 570 405 675]
41.697	6.0	535411	542040	ShowFixation	VGS	8	1	True	lime	40	[ 90 570 405 675]	[1350 1830  405  675]
48.326	0.2	542040	542279	BlankScreen	VGS	8	1	True	lime	40	[ 90 570 405 675]	[1350 1830  405  675]
48.565	1.0	542279	543318	ELCue	VGS	8	1	True	lime	40	[ 90 570 405 675]	[1350 1830  405  675]
50.025	6.0	543739	550365	ShowFixation	VGS	9	1	True	lime	600	[1350 1830  405  675]	[ 90 570 405 675]
56.651	0.2	550365	550604	BlankScreen	VGS	9	1	True	lime	600	[1350 1830  405  675]	[ 90 570 405 675]
56.89	1.0	550604	551644	ELCue	VGS	9	1	True	lime	600	[1350 1830  405  675]	[ 90 570 405 675]
58.332	2.0	552046	554673	ShowFixation	VGS	10	1	True	lime	40	[ 90 570 405 675]	[1350 1830  405  675]
60.959	0.2	554673	554891	BlankScreen	VGS	10	1	True	lime	40	[ 90 570 405 675]	[1350 1830  405  675]
61.177	1.0	554891	555915	ELCue	VGS	10	1	True	lime	40	[ 90 570 405 675]	[1350 1830  405  675]
62.622	6.0	556336	562960	ShowFixation	ANTI	11	1	True	red	180	[1035 1515  405  675]	[405 885 405 675]
69.246	0.2	562960	563200	BlankScreen	ANTI	11	1	True	red	180	[1035 1515  405  675]	[405 885 405 675]
69.486	1.0	563200	564240	ELCue	ANTI	11	1	True	red	180	[1035 1515  405  675]	[405 885 405 675]
70.938	2.0	564652	567268	ShowFixation	ANTI	12	1	True	red	40	[1350 1830  405  675]	[ 90 570 405 675]
73.554	0.2	567268	567487	BlankScreen	ANTI	12	1	True	red	40	[1350 1830  405  675]	[ 90 570 405 675]
73.773	1.0	567487	568511	ELCue	ANTI	12	1	True	red	40	[1350 1830  405  675]	[ 90 570 405 675]
75.214	2.0	568928	571556	ShowFixation	ANTI	13	1	True	red	460	[405 885 405 675]	[1035 1515  405  675]
77.842	0.2	571556	571791	BlankScreen	ANTI	13	1	True	red	460	[405 885 405 675]	[1035 1515  405  675]
78.077	1.0	571791	572832	ELCue	ANTI	13	1	True	red	460	[405 885 405 675]	[1035 1515  405  675]
79.538	2.0	573252	575877	ShowFixation	VGS	14	1	True	lime	180	[405 885 405 675]	[1035 1515  405  675]
82.163	0.2	575877	576112	BlankScreen	VGS	14	1	True	lime	180	[405 885 405 675]	[1035 1515  405  675]
82.398	1.0	576112	577153	ELCue	VGS	14	1	True	lime	180	[405 885 405 675]	[1035 1515  405  675]
83.857	6.0	577571	584198	ShowFixation	ANTI	15	1	True	red	460	[405 885 405 675]	[1035 1515  405  675]
90.484	0.2	584198	584437	BlankScreen	ANTI	15	1	True	red	460	[405 885 405 675]	[1035 1515  405  675]
90.723	1.0	584437	585478	ELCue	ANTI	15	1	True	red	460	[405 885 405 675]	[1035 1515  405  675]
92.168	6.0	585882	592523	ShowFixation	ANTI	16	1	True	red	600	[ 90 570 405 675]	[1350 1830  405  675]
98.809	0.2	592523	592762	BlankScreen	ANTI	16	1	True	red	600	[ 90 570 405 675]	[1350 1830  405  675]
99.048	1.0	592762	593800	ELCue	ANTI	16	1	True	red	600	[ 90 570 405 675]	[1350 1830  405  675]
115.452	2.0	609166	611196	ShowFixation	ANTI	17	2	False	red	600	[ 90 570 405 675]	[1350 1830  405  675]
117.482	0.2	611196	611432	BlankScreen	ANTI	17	2	False	red	600	[ 90 570 405 675]	[1350 1830  405  675]
117.718	1.0	611432	612432	ELCue	ANTI	17	2	False	red	600	[ 90 570 405 675]	[1350 1830  405  675]
119.138	6.0	612852	618883	ShowFixation	VGS	18	2	False	lime	600	[1350 1830  405  675]	[ 90 570 405 675]
125.169	0.2	618883	619122	BlankScreen	VGS	18	2	False	lime	600	[1350 1830  405  675]	[ 90 570 405 675]
125.408	1.0	619122	620122	ELCue	VGS	18	2	False	lime	600	[1350 1830  405  675]	[ 90 570 405 675]
126.832	2.0	620546	622574	ShowFixation	ANTI	19	2	False	red	600	[ 90 570 405 675]	[1350 1830  405  675]
128.86	0.2	622574	622809	BlankScreen	ANTI	19	2	False	red	600	[ 90 570 405 675]	[1350 1830  405  675]
129.095	1.0	622809	623809	ELCue	ANTI	19	2	False	red	600	[ 90 570 405 675]	[1350 1830  405  675]
130.504	6.0	624218	630244	ShowFixation	VGS	20	2	False	lime	40	[ 90 570 405 675]	[1350 1830  405  675]
136.53	0.2	630244	630484	BlankScreen	VGS	20	2	False	lime	40	[ 90 570 405 675]	[1350 1830  405  675]
136.77	1.0	630484	631484	ELCue	VGS	20	2	False	lime	40	[ 90 570 405 675]	[1350 1830  405  675]
138.188	6.0	631902	637935	ShowFixation	VGS	21	2	False	lime	180	[405 885 405 675]	[1035 1515  405  675]
144.221	0.2	637935	638175	BlankScreen	VGS	21	2	False	lime	180	[405 885 405 675]	[1035 1515  405  675]
144.461	1.0	638175	639175	ELCue	VGS	21	2	False	lime	180	[405 885 405 675]	[1035 1515  405  675]
145.884	6.0	639598	645626	ShowFixation	ANTI	22	2	False	red	460	[405 885 405 675]	[1035 1515  405  675]
151.912	0.2	645626	645865	BlankScreen	ANTI	22	2	False	red	460	[405 885 405 675]	[1035 1515  405  675]
152.151	1.0	645865	646865	ELCue	ANTI	22	2	False	red	460	[405 885 405 675]	[1035 1515  405  675]
153.574	6.0	647288	653317	ShowFixation	VGS	23	2	False	lime	460	[1035 1515  405  675]	[405 885 405 675]
159.603	0.2	653317	653556	BlankScreen	VGS	23	2	False	lime	460	[1035 1515  405  675]	[405 885 405 675]
159.842	1.0	653556	654556	ELCue	VGS	23	2	False	lime	460	[1035 1515  405  675]	[405 885 405 675]
161.261	2.0	654975	657008	ShowFixation	VGS	24	2	False	lime	180	[405 885 405 675]	[1035 1515  405  675]
163.294	0.2	657008	657243	BlankScreen	VGS	24	2	False	lime	180	[405 885 405 675]	[1035 1515  405  675]
163.529	1.0	657243	658243	ELCue	VGS	24	2	False	lime	180	[405 885 405 675]	[1035 1515  405  675]
164.953	6.0	658667	664695	ShowFixation	ANTI	25	2	False	red	180	[1035 1515  405  675]	[405 885 405 675]
170.981	0.2	664695	664934	BlankScreen	ANTI	25	2	False	red	180	[1035 1515  405  675]	[405 885 405 675]
171.22	1.0	664934	665934	ELCue	ANTI	25	2	False	red	180	[1035 1515  405  675]	[405 885 405 675]
172.639	2.0	666353	668386	ShowFixation	ANTI	26	2	False	red	40	[1350 1830  405  675]	[ 90 570 405 675]
174.672	0.2	668386	668621	BlankScreen	ANTI	26	2	False	red	40	[1350 1830  405  675]	[ 90 570 405 675]
174.907	1.0	668621	669621	ELCue	ANTI	26	2	False	red	40	[1350 1830  405  675]	[ 90 570 405 675]
176.331	6.0	670045	676073	ShowFixation	ANTI	27	2	False	red	460	[405 885 405 675]	[1035 1515  405  675]
182.359	0.2	676073	676312	BlankScreen	ANTI	27	2	False	red	460	[405 885 405 675]	[1035 1515  405  675]
182.598	1.0	676312	677312	ELCue	ANTI	27	2	False	red	460	[405 885 405 675]	[1035 1515  405  675]
184.018	2.0	677732	679764	ShowFixation	VGS	28	2	False	lime	600	[1350 1830  405  675]	[ 90 570 405 675]
186.05	0.2	679764	679999	BlankScreen	VGS	28	2	False	lime	600	[1350 1830  405  675]	[ 90 570 405 675]
186.285	1.0	679999	680999	ELCue	VGS	28	2	False	lime	600	[1350 1830  405  675]	[ 90 570 405 675]
187.708	2.0	681422	683451	ShowFixation	VGS	29	2	False	lime	600	[1350 1830  405  675]	[ 90 570 405 675]
189.737	0.2	683451	683686	BlankScreen	VGS	29	2	False	lime	600	[1350 1830  405  675]	[ 90 570 405 675]
189.972	1.0	683686	684686	ELCue	VGS	29	2	False	lime	600	[1350 1830  405  675]	[ 90 570 405 675]
191.391	2.0	685105	687138	ShowFixation	ANTI	30	2	False	red	180	[1035 1515  405  675]	[405 885 405 675]
193.424	0.2	687138	687373	BlankScreen	ANTI	30	2	False	red	180	[1035 1515  405  675]	[405 885 405 675]
193.659	1.0	687373	688373	ELCue	ANTI	30	2	False	red	180	[1035 1515  405  675]	[405 885 405 675]
195.083	2.0	688797	690825	ShowFixation	VGS	31	2	False	lime	460	[1035 1515  405  675]	[405 885 405 675]
197.111	0.2	690825	691060	BlankScreen	VGS	31	2	False	lime	460	[1035 1515  405  675]	[405 885 405 675]
197.346	1.0	691060	692060	ELCue	VGS	31	2	False	lime	460	[1035 1515  405  675]	[405 885 405 675]
198.768	6.0	692482	698512	ShowFixation	VGS	32	2	False	lime	40	[ 90 570 405 675]	[1350 1830  405  675]
204.798	0.2	698512	698751	BlankScreen	VGS	32	2	False	lime	40	[ 90 570 405 675]	[1350 1830  405  675]
205.037	1.0	698751	699751	ELCue	VGS	32	2	False	lime	40	[ 90 570 405 675]	[1350 1830  405  675]
206.46	6.0	700174	706203	ShowFixation	VGS	33	2	False	lime	180	[405 885 405 675]	[1035 1515  405  675]
212.489	0.2	706203	706442	BlankScreen	VGS	33	2	False	lime	180	[405 885 405 675]	[1035 1515  405  675]
212.728	1.0	706442	707442	ELCue	VGS	33	2	False	lime	180	[405 885 405 675]	[1035 1515  405  675]
214.15	6.0	707864	713894	ShowFixation	VGS	34	2	False	lime	600	[1350 1830  405  675]	[ 90 570 405 675]
220.18	0.2	713894	714133	BlankScreen	VGS	34	2	False	lime	600	[1350 1830  405  675]	[ 90 570 405 675]
220.419	1.0	714133	715133	ELCue	VGS	34	2	False	lime	600	[1350 1830  405  675]	[ 90 570 405 675]
221.838	6.0	715552	721584	ShowFixation	ANTI	35	2	False	red	600	[ 90 570 405 675]	[1350 1830  405  675]
227.87	0.2	721584	721824	BlankScreen	ANTI	35	2	False	red	600	[ 90 570 405 675]	[1350 1830  405  675]
228.11	1.0	721824	722824	ELCue	ANTI	35	2	False	red	600	[ 90 570 405 675]	[1350 1830  405  675]
229.53	2.0	723244	725275	ShowFixation	ANTI	36	2	False	red	40	[1350 1830  405  675]	[ 90 570 405 675]
231.561	0.2	725275	725511	BlankScreen	ANTI	36	2	False	red	40	[1350 1830  405  675]	[ 90 570 405 675]
231.797	1.0	725511	726511	ELCue	ANTI	36	2	False	red	40	[1350 1830  405  675]	[ 90 570 405 675]
233.22	6.0	726934	732962	ShowFixation	ANTI	37	2	False	red	40	[1350 1830  405  675]	[ 90 570 405 675]
239.249	0.2	732963	733202	BlankScreen	ANTI	37	2	False	red	40	[1350 1830  405  675]	[ 90 570 405 675]
239.489	1.0	733203	734203	ELCue	ANTI	37	2	False	red	40	[1350 1830  405  675]	[ 90 570 405 675]
240.912	2.0	734626	736654	ShowFixation	VGS	38	2	False	lime	180	[405 885 405 675]	[1035 1515  405  675]
242.94	0.2	736654	736889	BlankScreen	VGS	38	2	False	lime	180	[405 885 405 675]	[1035 1515  405  675]
243.176	1.0	736890	737890	ELCue	VGS	38	2	False	lime	180	[405 885 405 675]	[1035 1515  405  675]
244.598	6.0	738312	744341	ShowFixation	ANTI	39	2	False	red	40	[1350 1830  405  675]	[ 90 570 405 675]
250.627	0.2	744341	744581	BlankScreen	ANTI	39	2	False	red	40	[1350 1830  405  675]	[ 90 570 405 675]
250.867	1.0	744581	745581	ELCue	ANTI	39	2	False	red	40	[1350 1830  405  675]	[ 90 570 405 675]
252.286	2.0	746000	748032	ShowFixation	ANTI	40	2	False	red	460	[405 885 405 675]	[1035 1515  405  675]
254.318	0.2	748032	748268	BlankScreen	ANTI	40	2	False	red	460	[405 885 405 675]	[1035 1515  405  675]
254.554	1.0	748268	749268	ELCue	ANTI	40	2	False	red	460	[405 885 405 675]	[1035 1515  405  675]
255.974	6.0	749688	755719	ShowFixation	VGS	41	2	False	lime	460	[1035 1515  405  675]	[405 885 405 675]
262.005	0.2	755719	755958	BlankScreen	VGS	41	2	False	lime	460	[1035 1515  405  675]	[405 885 405 675]
262.244	1.0	755958	756958	ELCue	VGS	41	2	False	lime	460	[1035 1515  405  675]	[405 885 405 675]
263.666	2.0	757380	759410	ShowFixation	VGS	42	2	False	lime	40	[ 90 570 405 675]	[1350 1830  405  675]
265.696	0.2	759410	759645	BlankScreen	VGS	42	2	False	lime	40	[ 90 570 405 675]	[1350 1830  405  675]
265.931	1.0	759645	760645	ELCue	VGS	42	2	False	lime	40	[ 90 570 405 675]	[1350 1830  405  675]
267.347	6.0	761061	767097	ShowFixation	ANTI	43	2	False	red	600	[ 90 570 405 675]	[1350 1830  405  675]
273.383	0.2	767097	767336	BlankScreen	ANTI	43	2	False	red	600	[ 90 570 405 675]	[1350 1830  405  675]
273.622	1.0	767336	768336	ELCue	ANTI	43	2	False	red	600	[ 90 570 405 675]	[1350 1830  405  675]
275.046	2.0	768760	770788	ShowFixation	VGS	44	2	False	lime	460	[1035 1515  405  675]	[405 885 405 675]
277.074	0.2	770788	771023	BlankScreen	VGS	44	2	False	lime	460	[1035 1515  405  675]	[405 885 405 675]
277.309	1.0	771023	772023	ELCue	VGS	44	2	False	lime	460	[1035 1515  405  675]	[405 885 405 675]
278.73	6.0	772444	778475	ShowFixation	ANTI	45	2	False	red	180	[1035 1515  405  675]	[405 885 405 675]
284.761	0.2	778475	778714	BlankScreen	ANTI	45	2	False	red	180	[1035 1515  405  675]	[405 885 405 675]
285.0	1.0	778714	779714	ELCue	ANTI	45	2	False	red	180	[1035 1515  405  675]	[405 885 405 675]
286.424	2.0	780138	782166	ShowFixation	VGS	46	2	False	lime	40	[ 90 570 405 675]	[1350 1830  405  675]
288.452	0.2	782166	782401	BlankScreen	VGS	46	2	False	lime	40	[ 90 570 405 675]	[1350 1830  405  675]
288.687	1.0	782401	783401	ELCue	VGS	46	2	False	lime	40	[ 90 570 405 675]	[1350 1830  405  675]
290.108	2.0	783822	785853	ShowFixation	ANTI	47	2	False	red	180	[1035 1515  405  675]	[405 885 405 675]
292.139	0.2	785853	786088	BlankScreen	ANTI	47	2	False	red	180	[1035 1515  405  675]	[405 885 405 675]
292.374	1.0	786088	787088	ELCue	ANTI	47	2	False	red	180	[1035 1515  405  675]	[405 885 405 675]
293.795	2.0	787509	789540	ShowFixation	ANTI	48	2	False	red	460	[405 885 405 675]	[1035 1515  405  675]
295.826	0.2	789540	789775	BlankScreen	ANTI	48	2	False	red	460	[405 885 405 675]	[1035 1515  405  675]
296.061	1.0	789775	790775	ELCue	ANTI	48	2	False	red	460	[405 885 405 675]	[1035 1515  405  675]
335.042	6.0	828756	834780	ShowFixation	ANTI	49	3	False	red	180	[1035 1515  405  675]	[405 885 405 675]
341.066	0.2	834780	835020	BlankScreen	ANTI	49	3	False	red	180	[1035 1515  405  675]	[405 885 405 675]
341.306	1.0	835020	836020	ELCue	ANTI	49	3	False	red	180	[1035 1515  405  675]	[405 885 405 675]
342.727	6.0	836441	842471	ShowFixation	VGS	50	3	False	lime	460	[1035 1515  405  675]	[405 885 405 675]
348.757	0.2	842471	842711	BlankScreen	VGS	50	3	False	lime	460	[1035 1515  405  675]	[405 885 405 675]
348.997	1.0	842711	843711	ELCue	VGS	50	3	False	lime	460	[1035 1515  405  675]	[405 885 405 675]
350.42	2.0	844134	846162	ShowFixation	VGS	51	3	False	lime	180	[405 885 405 675]	[1035 1515  405  675]
352.448	0.2	846162	846398	BlankScreen	VGS	51	3	False	lime	180	[405 885 405 675]	[1035 1515  405  675]
352.684	1.0	846398	847398	ELCue	VGS	51	3	False	lime	180	[405 885 405 675]	[1035 1515  405  675]
354.108	2.0	847822	849849	ShowFixation	ANTI	52	3	False	red	600	[ 90 570 405 675]	[1350 1830  405  675]
356.135	0.2	849849	850085	BlankScreen	ANTI	52	3	False	red	600	[ 90 570 405 675]	[1350 1830  405  675]
356.371	1.0	850085	851085	ELCue	ANTI	52	3	False	red	600	[ 90 570 405 675]	[1350 1830  405  675]
357.788	6.0	851502	857536	ShowFixation	VGS	53	3	False	lime	460	[1035 1515  405  675]	[405 885 405 675]
363.823	0.2	857537	857776	BlankScreen	VGS	53	3	False	lime	460	[1035 1515  405  675]	[405 885 405 675]
364.062	1.0	857776	858776	ELCue	VGS	53	3	False	lime	460	[1035 1515  405  675]	[405 885 405 675]
365.486	6.0	859200	865228	ShowFixation	ANTI	54	3	False	red	460	[405 885 405 675]	[1035 1515  405  675]
371.514	0.2	865228	865466	BlankScreen	ANTI	54	3	False	red	460	[405 885 405 675]	[1035 1515  405  675]
371.753	1.0	865467	866467	ELCue	ANTI	54	3	False	red	460	[405 885 405 675]	[1035 1515  405  675]
373.141	6.0	866855	872886	ShowFixation	ANTI	55	3	False	red	600	[ 90 570 405 675]	[1350 1830  405  675]
379.172	0.2	872886	873125	BlankScreen	ANTI	55	3	False	red	600	[ 90 570 405 675]	[1350 1830  405  675]
379.411	1.0	873125	874125	ELCue	ANTI	55	3	False	red	600	[ 90 570 405 675]	[1350 1830  405  675]
380.836	6.0	874550	880577	ShowFixation	ANTI	56	3	False	red	600	[ 90 570 405 675]	[1350 1830  405  675]
386.863	0.2	880577	880816	BlankScreen	ANTI	56	3	False	red	600	[ 90 570 405 675]	[1350 1830  405  675]
387.102	1.0	880816	881816	ELCue	ANTI	56	3	False	red	600	[ 90 570 405 675]	[1350 1830  405  675]
388.525	2.0	882239	884268	ShowFixation	VGS	57	3	False	lime	40	[ 90 570 405 675]	[1350 1830  405  675]
390.554	0.2	884268	884503	BlankScreen	VGS	57	3	False	lime	40	[ 90 570 405 675]	[1350 1830  405  675]
390.789	1.0	884503	885503	ELCue	VGS	57	3	False	lime	40	[ 90 570 405 675]	[1350 1830  405  675]
392.21	6.0	885924	891955	ShowFixation	ANTI	58	3	False	red	40	[1350 1830  405  675]	[ 90 570 405 675]
398.241	0.2	891955	892194	BlankScreen	ANTI	58	3	False	red	40	[1350 1830  405  675]	[ 90 570 405 675]
398.48	1.0	892194	893194	ELCue	ANTI	58	3	False	red	40	[1350 1830  405  675]	[ 90 570 405 675]
399.905	2.0	893619	895645	ShowFixation	ANTI	59	3	False	red	460	[405 885 405 675]	[1035 1515  405  675]
401.931	0.2	895645	895881	BlankScreen	ANTI	59	3	False	red	460	[405 885 405 675]	[1035 1515  405  675]
402.167	1.0	895881	896881	ELCue	ANTI	59	3	False	red	460	[405 885 405 675]	[1035 1515  405  675]
403.587	2.0	897301	899332	ShowFixation	ANTI	60	3	False	red	180	[1035 1515  405  675]	[405 885 405 675]
405.618	0.2	899332	899568	BlankScreen	ANTI	60	3	False	red	180	[1035 1515  405  675]	[405 885 405 675]
405.854	1.0	899568	900568	ELCue	ANTI	60	3	False	red	180	[1035 1515  405  675]	[405 885 405 675]
407.276	6.0	900990	907019	ShowFixation	ANTI	61	3	False	red	460	[405 885 405 675]	[1035 1515  405  675]
413.305	0.2	907019	907259	BlankScreen	ANTI	61	3	False	red	460	[405 885 405 675]	[1035 1515  405  675]
413.545	1.0	907259	908259	ELCue	ANTI	61	3	False	red	460	[405 885 405 675]	[1035 1515  405  675]
414.966	2.0	908680	910710	ShowFixation	VGS	62	3	False	lime	460	[1035 1515  405  675]	[405 885 405 675]
416.996	0.2	910710	910946	BlankScreen	VGS	62	3	False	lime	460	[1035 1515  405  675]	[405 885 405 675]
417.232	1.0	910946	911946	ELCue	VGS	62	3	False	lime	460	[1035 1515  405  675]	[405 885 405 675]
418.65	2.0	912364	914397	ShowFixation	VGS	63	3	False	lime	460	[1035 1515  405  675]	[405 885 405 675]
420.683	0.2	914397	914633	BlankScreen	VGS	63	3	False	lime	460	[1035 1515  405  675]	[405 885 405 675]
420.919	1.0	914633	915633	ELCue	VGS	63	3	False	lime	460	[1035 1515  405  675]	[405 885 405 675]
422.342	2.0	916056	918084	ShowFixation	ANTI	64	3	False	red	180	[1035 1515  405  675]	[405 885 405 675]
424.37	0.2	918084	918320	BlankScreen	ANTI	64	3	False	red	180	[1035 1515  405  675]	[405 885 405 675]
424.606	1.0	918320	919320	ELCue	ANTI	64	3	False	red	180	[1035 1515  405  675]	[405 885 405 675]
426.026	2.0	919740	921771	ShowFixation	ANTI	65	3	False	red	600	[ 90 570 405 675]	[1350 1830  405  675]
428.057	0.2	921771	922007	BlankScreen	ANTI	65	3	False	red	600	[ 90 570 405 675]	[1350 1830  405  675]
428.293	1.0	922007	923007	ELCue	ANTI	65	3	False	red	600	[ 90 570 405 675]	[1350 1830  405  675]
429.718	2.0	923432	925458	ShowFixation	VGS	66	3	False	lime	600	[1350 1830  405  675]	[ 90 570 405 675]
431.744	0.2	925458	925694	BlankScreen	VGS	66	3	False	lime	600	[1350 1830  405  675]	[ 90 570 405 675]
431.98	1.0	925694	926694	ELCue	VGS	66	3	False	lime	600	[1350 1830  405  675]	[ 90 570 405 675]
433.403	6.0	927117	933145	ShowFixation	VGS	67	3	False	lime	180	[405 885 405 675]	[1035 1515  405  675]
439.431	0.2	933145	933384	BlankScreen	VGS	67	3	False	lime	180	[405 885 405 675]	[1035 1515  405  675]
439.67	1.0	933384	934384	ELCue	VGS	67	3	False	lime	180	[405 885 405 675]	[1035 1515  405  675]
441.095	6.0	934809	940836	ShowFixation	VGS	68	3	False	lime	180	[405 885 405 675]	[1035 1515  405  675]
447.122	0.2	940836	941075	BlankScreen	VGS	68	3	False	lime	180	[405 885 405 675]	[1035 1515  405  675]
447.361	1.0	941075	942075	ELCue	VGS	68	3	False	lime	180	[405 885 405 675]	[1035 1515  405  675]
448.787	6.0	942501	948527	ShowFixation	VGS	69	3	False	lime	40	[ 90 570 405 675]	[1350 1830  405  675]
454.813	0.2	948527	948766	BlankScreen	VGS	69	3	False	lime	40	[ 90 570 405 675]	[1350 1830  405  675]
455.052	1.0	948766	949766	ELCue	VGS	69	3	False	lime	40	[ 90 570 405 675]	[1350 1830  405  675]
456.474	6.0	950188	956218	ShowFixation	VGS	70	3	False	lime	600	[1350 1830  405  675]	[ 90 570 405 675]
462.504	0.2	956218	956457	BlankScreen	VGS	70	3	False	lime	600	[1350 1830  405  675]	[ 90 570 405 675]
462.743	1.0	956457	957457	ELCue	VGS	70	3	False	lime	600	[1350 1830  405  675]	[ 90 570 405 675]
464.168	2.0	957882	959909	ShowFixation	ANTI	71	3	False	red	460	[405 885 405 675]	[1035 1515  405  675]
466.195	0.2	959909	960144	BlankScreen	ANTI	71	3	False	red	460	[405 885 405 675]	[1035 1515  405  675]
466.43	1.0	960144	961144	ELCue	ANTI	71	3	False	red	460	[405 885 405 675]	[1035 1515  405  675]
467.853	6.0	961567	967596	ShowFixation	VGS	72	3	False	lime	40	[ 90 570 405 675]	[1350 1830  405  675]
473.882	0.2	967596	967835	BlankScreen	VGS	72	3	False	lime	40	[ 90 570 405 675]	[1350 1830  405  675]
474.121	1.0	967835	968835	ELCue	VGS	72	3	False	lime	40	[ 90 570 405 675]	[1350 1830  405  675]
475.542	6.0	969256	975287	ShowFixation	ANTI	73	3	False	red	180	[1035 1515  405  675]	[405 885 405 675]
481.573	0.2	975287	975526	BlankScreen	ANTI	73	3	False	red	180	[1035 1515  405  675]	[405 885 405 675]
481.812	1.0	975526	976526	ELCue	ANTI	73	3	False	red	180	[1035 1515  405  675]	[405 885 405 675]
483.23	2.0	976944	978978	ShowFixation	ANTI	74	3	False	red	40	[1350 1830  405  675]	[ 90 570 405 675]
485.264	0.2	978978	979213	BlankScreen	ANTI	74	3	False	red	40	[1350 1830  405  675]	[ 90 570 405 675]
485.499	1.0	979213	980213	ELCue	ANTI	74	3	False	red	40	[1350 1830  405  675]	[ 90 570 405 675]
486.923	2.0	980637	982665	ShowFixation	ANTI	75	3	False	red	40	[1350 1830  405  675]	[ 90 570 405 675]
488.951	0.2	982665	982900	BlankScreen	ANTI	75	3	False	red	40	[1350 1830  405  675]	[ 90 570 405 675]
489.186	1.0	982900	983900	ELCue	ANTI	75	3	False	red	40	[1350 1830  405  675]	[ 90 570 405 675]
490.611	2.0	984325	986352	ShowFixation	VGS	76	3	False	lime	40	[ 90 570 405 675]	[1350 1830  405  675]
492.638	0.2	986352	986587	BlankScreen	VGS	76	3	False	lime	40	[ 90 570 405 675]	[1350 1830  405  675]
492.873	1.0	986587	987587	ELCue	VGS	76	3	False	lime	40	[ 90 570 405 675]	[1350 1830  405  675]
494.294	2.0	988008	990039	ShowFixation	VGS	77	3	False	lime	600	[1350 1830  405  675]	[ 90 570 405 675]
496.326	0.2	990040	990274	BlankScreen	VGS	77	3	False	lime	600	[1350 1830  405  675]	[ 90 570 405 675]
496.561	1.0	990275	991275	ELCue	VGS	77	3	False	lime	600	[1350 1830  405  675]	[ 90 570 405 675]
497.984	6.0	991698	997727	ShowFixation	VGS	78	3	False	lime	600	[1350 1830  405  675]	[ 90 570 405 675]
504.013	0.2	997727	997966	BlankScreen	VGS	78	3	False	lime	600	[1350 1830  405  675]	[ 90 570 405 675]
504.252	1.0	997966	998966	ELCue	VGS	78	3	False	lime	600	[1350 1830  405  675]	[ 90 570 405 675]
505.671	2.0	999385	1001417	ShowFixation	VGS	79	3	False	lime	180	[405 885 405 675]	[1035 1515  405  675]
507.703	0.2	1001417	1001653	BlankScreen	VGS	79	3	False	lime	180	[405 885 405 675]	[1035 1515  405  675]
507.939	1.0	1001653	1002653	ELCue	VGS	79	3	False	lime	180	[405 885 405 675]	[1035 1515  405  675]
509.362	6.0	1003076	1009104	ShowFixation	ANTI	80	3	False	red	40	[1350 1830  405  675]	[ 90 570 405 675]
515.39	0.2	1009104	1009344	BlankScreen	ANTI	80	3	False	red	40	[1350 1830  405  675]	[ 90 570 405 675]
515.63	1.0	1009344	1010344	ELCue	ANTI	80	3	False	red	40	[1350 1830  405  675]	[ 90 570 405 675]
557.352	6.0	1051066	1057102	ShowFixation	VGS	81	4	False	lime	180	[405 885 405 675]	[1035 1515  405  675]
563.388	0.2	1057102	1057341	BlankScreen	VGS	81	4	False	lime	180	[405 885 405 675]	[1035 1515  405  675]
563.627	1.0	1057341	1058341	ELCue	VGS	81	4	False	lime	180	[405 885 405 675]	[1035 1515  405  675]
565.052	2.0	1058766	1060793	ShowFixation	VGS	82	4	False	lime	180	[405 885 405 675]	[1035 1515  405  675]
567.079	0.2	1060793	1061028	BlankScreen	VGS	82	4	False	lime	180	[405 885 405 675]	[1035 1515  405  675]
567.314	1.0	1061028	1062028	ELCue	VGS	82	4	False	lime	180	[405 885 405 675]	[1035 1515  405  675]
568.74	2.0	1062454	1064480	ShowFixation	VGS	83	4	False	lime	460	[1035 1515  405  675]	[405 885 405 675]
570.766	0.2	1064480	1064715	BlankScreen	VGS	83	4	False	lime	460	[1035 1515  405  675]	[405 885 405 675]
571.001	1.0	1064715	1065715	ELCue	VGS	83	4	False	lime	460	[1035 1515  405  675]	[405 885 405 675]
572.426	6.0	1066140	1072167	ShowFixation	ANTI	84	4	False	red	600	[ 90 570 405 675]	[1350 1830  405  675]
578.453	0.2	1072167	1072406	BlankScreen	ANTI	84	4	False	red	600	[ 90 570 405 675]	[1350 1830  405  675]
578.692	1.0	1072406	1073406	ELCue	ANTI	84	4	False	red	600	[ 90 570 405 675]	[1350 1830  405  675]
580.118	2.0	1073832	1075858	ShowFixation	VGS	85	4	False	lime	40	[ 90 570 405 675]	[1350 1830  405  675]
582.144	0.2	1075858	1076093	BlankScreen	VGS	85	4	False	lime	40	[ 90 570 405 675]	[1350 1830  405  675]
582.379	1.0	1076093	1077093	ELCue	VGS	85	4	False	lime	40	[ 90 570 405 675]	[1350 1830  405  675]
583.801	2.0	1077515	1079544	ShowFixation	ANTI	86	4	False	red	180	[1035 1515  405  675]	[405 885 405 675]
585.83	0.2	1079544	1079780	BlankScreen	ANTI	86	4	False	red	180	[1035 1515  405  675]	[405 885 405 675]
586.066	1.0	1079780	1080780	ELCue	ANTI	86	4	False	red	180	[1035 1515  405  675]	[405 885 405 675]
587.469	2.0	1081183	1083215	ShowFixation	VGS	87	4	False	lime	460	[1035 1515  405  675]	[405 885 405 675]
589.501	0.2	1083215	1083450	BlankScreen	VGS	87	4	False	lime	460	[1035 1515  405  675]	[405 885 405 675]
589.736	1.0	1083450	1084450	ELCue	VGS	87	4	False	lime	460	[1035 1515  405  675]	[405 885 405 675]
591.158	6.0	1084872	1090902	ShowFixation	VGS	88	4	False	lime	600	[1350 1830  405  675]	[ 90 570 405 675]
597.188	0.2	1090902	1091141	BlankScreen	VGS	88	4	False	lime	600	[1350 1830  405  675]	[ 90 570 405 675]
597.427	1.0	1091141	1092141	ELCue	VGS	88	4	False	lime	600	[1350 1830  405  675]	[ 90 570 405 675]
598.846	2.0	1092560	1094593	ShowFixation	ANTI	89	4	False	red	40	[1350 1830  405  675]	[ 90 570 405 675]
600.879	0.2	1094593	1094828	BlankScreen	ANTI	89	4	False	red	40	[1350 1830  405  675]	[ 90 570 405 675]
601.114	1.0	1094828	1095828	ELCue	ANTI	89	4	False	red	40	[1350 1830  405  675]	[ 90 570 405 675]
602.536	2.0	1096250	1098280	ShowFixation	VGS	90	4	False	lime	600	[1350 1830  405  675]	[ 90 570 405 675]
604.566	0.2	1098280	1098515	BlankScreen	VGS	90	4	False	lime	600	[1350 1830  405  675]	[ 90 570 405 675]
604.801	1.0	1098515	1099515	ELCue	VGS	90	4	False	lime	600	[1350 1830  405  675]	[ 90 570 405 675]
606.223	2.0	1099937	1101967	ShowFixation	VGS	91	4	False	lime	600	[1350 1830  405  675]	[ 90 570 405 675]
608.253	0.2	1101967	1102202	BlankScreen	VGS	91	4	False	lime	600	[1350 1830  405  675]	[ 90 570 405 675]
608.488	1.0	1102202	1103202	ELCue	VGS	91	4	False	lime	600	[1350 1830  405  675]	[ 90 570 405 675]
609.915	6.0	1103629	1109654	ShowFixation	VGS	92	4	False	lime	600	[1350 1830  405  675]	[ 90 570 405 675]
615.94	0.2	1109654	1109893	BlankScreen	VGS	92	4	False	lime	600	[1350 1830  405  675]	[ 90 570 405 675]
616.179	1.0	1109893	1110893	ELCue	VGS	92	4	False	lime	600	[1350 1830  405  675]	[ 90 570 405 675]
617.6	6.0	1111314	1117345	ShowFixation	ANTI	93	4	False	red	40	[1350 1830  405  675]	[ 90 570 405 675]
623.631	0.2	1117345	1117584	BlankScreen	ANTI	93	4	False	red	40	[1350 1830  405  675]	[ 90 570 405 675]
623.871	1.0	1117585	1118585	ELCue	ANTI	93	4	False	red	40	[1350 1830  405  675]	[ 90 570 405 675]
625.29	6.0	1119004	1125036	ShowFixation	ANTI	94	4	False	red	600	[ 90 570 405 675]	[1350 1830  405  675]
631.322	0.2	1125036	1125276	BlankScreen	ANTI	94	4	False	red	600	[ 90 570 405 675]	[1350 1830  405  675]
631.562	1.0	1125276	1126276	ELCue	ANTI	94	4	False	red	600	[ 90 570 405 675]	[1350 1830  405  675]
632.979	6.0	1126693	1132727	ShowFixation	VGS	95	4	False	lime	460	[1035 1515  405  675]	[405 885 405 675]
639.013	0.2	1132727	1132967	BlankScreen	VGS	95	4	False	lime	460	[1035 1515  405  675]	[405 885 405 675]
639.253	1.0	1132967	1133967	ELCue	VGS	95	4	False	lime	460	[1035 1515  405  675]	[405 885 405 675]
640.678	2.0	1134392	1136418	ShowFixation	VGS	96	4	False	lime	40	[ 90 570 405 675]	[1350 1830  405  675]
642.704	0.2	1136418	1136654	BlankScreen	VGS	96	4	False	lime	40	[ 90 570 405 675]	[1350 1830  405  675]
642.94	1.0	1136654	1137654	ELCue	VGS	96	4	False	lime	40	[ 90 570 405 675]	[1350 1830  405  675]
644.36	6.0	1138074	1144105	ShowFixation	VGS	97	4	False	lime	40	[ 90 570 405 675]	[1350 1830  405  675]
650.391	0.2	1144105	1144345	BlankScreen	VGS	97	4	False	lime	40	[ 90 570 405 675]	[1350 1830  405  675]
650.631	1.0	1144345	1145345	ELCue	VGS	97	4	False	lime	40	[ 90 570 405 675]	[1350 1830  405  675]
652.052	2.0	1145766	1147796	ShowFixation	ANTI	98	4	False	red	460	[405 885 405 675]	[1035 1515  405  675]
654.082	0.2	1147796	1148031	BlankScreen	ANTI	98	4	False	red	460	[405 885 405 675]	[1035 1515  405  675]
654.317	1.0	1148031	1149031	ELCue	ANTI	98	4	False	red	460	[405 885 405 675]	[1035 1515  405  675]
655.734	6.0	1149448	1155483	ShowFixation	ANTI	99	4	False	red	180	[1035 1515  405  675]	[405 885 405 675]
661.769	0.2	1155483	1155722	BlankScreen	ANTI	99	4	False	red	180	[1035 1515  405  675]	[405 885 405 675]
662.008	1.0	1155722	1156722	ELCue	ANTI	99	4	False	red	180	[1035 1515  405  675]	[405 885 405 675]
663.43	2.0	1157144	1159174	ShowFixation	ANTI	100	4	False	red	40	[1350 1830  405  675]	[ 90 570 405 675]
665.46	0.2	1159174	1159409	BlankScreen	ANTI	100	4	False	red	40	[1350 1830  405  675]	[ 90 570 405 675]
665.695	1.0	1159409	1160409	ELCue	ANTI	100	4	False	red	40	[1350 1830  405  675]	[ 90 570 405 675]
667.117	2.0	1160831	1162861	ShowFixation	ANTI	101	4	False	red	600	[ 90 570 405 675]	[1350 1830  405  675]
669.147	0.2	1162861	1163096	BlankScreen	ANTI	101	4	False	red	600	[ 90 570 405 675]	[1350 1830  405  675]
669.382	1.0	1163096	1164096	ELCue	ANTI	101	4	False	red	600	[ 90 570 405 675]	[1350 1830  405  675]
670.804	2.0	1164518	1166548	ShowFixation	ANTI	102	4	False	red	180	[1035 1515  405  675]	[405 885 405 675]
672.834	0.2	1166548	1166783	BlankScreen	ANTI	102	4	False	red	180	[1035 1515  405  675]	[405 885 405 675]
673.069	1.0	1166783	1167783	ELCue	ANTI	102	4	False	red	180	[1035 1515  405  675]	[405 885 405 675]
674.49	6.0	1168204	1174235	ShowFixation	VGS	103	4	False	lime	40	[ 90 570 405 675]	[1350 1830  405  675]
680.521	0.2	1174235	1174474	BlankScreen	VGS	103	4	False	lime	40	[ 90 570 405 675]	[1350 1830  405  675]
680.76	1.0	1174474	1175474	ELCue	VGS	103	4	False	lime	40	[ 90 570 405 675]	[1350 1830  405  675]
682.184	6.0	1175898	1181926	ShowFixation	VGS	104	4	False	lime	460	[1035 1515  405  675]	[405 885 405 675]
688.212	0.2	1181926	1182165	BlankScreen	VGS	104	4	False	lime	460	[1035 1515  405  675]	[405 885 405 675]
688.451	1.0	1182165	1183165	ELCue	VGS	104	4	False	lime	460	[1035 1515  405  675]	[405 885 405 675]
689.871	2.0	1183585	1185617	ShowFixation	ANTI	105	4	False	red	600	[ 90 570 405 675]	[1350 1830  405  675]
691.903	0.2	1185617	1185852	BlankScreen	ANTI	105	4	False	red	600	[ 90 570 405 675]	[1350 1830  405  675]
692.138	1.0	1185852	1186852	ELCue	ANTI	105	4	False	red	600	[ 90 570 405 675]	[1350 1830  405  675]
693.563	2.0	1187277	1189304	ShowFixation	ANTI	106	4	False	red	460	[405 885 405 675]	[1035 1515  405  675]
695.59	0.2	1189304	1189539	BlankScreen	ANTI	106	4	False	red	460	[405 885 405 675]	[1035 1515  405  675]
695.825	1.0	1189539	1190539	ELCue	ANTI	106	4	False	red	460	[405 885 405 675]	[1035 1515  405  675]
697.254	6.0	1190968	1197007	ShowFixation	VGS	107	4	False	lime	180	[405 885 405 675]	[1035 1515  405  675]
703.293	0.2	1197007	1197247	BlankScreen	VGS	107	4	False	lime	180	[405 885 405 675]	[1035 1515  405  675]
703.533	1.0	1197247	1198247	ELCue	VGS	107	4	False	lime	180	[405 885 405 675]	[1035 1515  405  675]
704.958	6.0	1198672	1204698	ShowFixation	ANTI	108	4	False	red	40	[1350 1830  405  675]	[ 90 570 405 675]
710.984	0.2	1204698	1204938	BlankScreen	ANTI	108	4	False	red	40	[1350 1830  405  675]	[ 90 570 405 675]
711.224	1.0	1204938	1205938	ELCue	ANTI	108	4	False	red	40	[1350 1830  405  675]	[ 90 570 405 675]
712.648	6.0	1206362	1212389	ShowFixation	ANTI	109	4	False	red	460	[405 885 405 675]	[1035 1515  405  675]
718.675	0.2	1212389	1212628	BlankScreen	ANTI	109	4	False	red	460	[405 885 405 675]	[1035 1515  405  675]
718.914	1.0	1212628	1213628	ELCue	ANTI	109	4	False	red	460	[405 885 405 675]	[1035 1515  405  675]
720.336	6.0	1214050	1220080	ShowFixation	ANTI	110	4	False	red	180	[1035 1515  405  675]	[405 885 405 675]
726.366	0.2	1220080	1220319	BlankScreen	ANTI	110	4	False	red	180	[1035 1515  405  675]	[405 885 405 675]
726.605	1.0	1220319	1221319	ELCue	ANTI	110	4	False	red	180	[1035 1515  405  675]	[405 885 405 675]
728.029	6.0	1221743	1227771	ShowFixation	ANTI	111	4	False	red	460	[405 885 405 675]	[1035 1515  405  675]
734.057	0.2	1227771	1228010	BlankScreen	ANTI	111	4	False	red	460	[405 885 405 675]	[1035 1515  405  675]
734.296	1.0	1228010	1229010	ELCue	ANTI	111	4	False	red	460	[405 885 405 675]	[1035 1515  405  675]
735.716	2.0	1229430	1231462	ShowFixation	VGS	112	4	False	lime	180	[405 885 405 675]	[1035 1515  405  675]
737.748	0.2	1231462	1231697	BlankScreen	VGS	112	4	False	lime	180	[405 885 405 675]	[1035 1515  405  675]
737.983	1.0	1231697	1232697	ELCue	VGS	112	4	False	lime	180	[405 885 405 675]	[1035 1515  405  675]
