participant_id	condition	accuracy	reaction_time
sub-24079	incongruent	1	1.780
sub-24079	incongruent	1	1.015
sub-24079	incongruent	1	0.923
sub-24079	incongruent	1	1.064
sub-24079	incongruent	1	0.847
sub-24079	congruent	1	0.719
sub-24079	incongruent	1	1.081
sub-24079	incongruent	1	0.886
sub-24079	incongruent	1	1.258
sub-24079	congruent	1	0.694
sub-24079	incongruent	1	0.757
sub-24079	congruent	1	0.734
sub-24079	congruent	1	0.631
sub-24079	congruent	1	0.657
sub-24079	congruent	1	0.635
sub-24079	incongruent	1	0.912
sub-24079	congruent	1	0.650
sub-24079	congruent	1	0.619
sub-24079	congruent	1	0.992
sub-24079	congruent	1	0.809
sub-24079	incongruent	1	0.803
sub-24079	incongruent	1	1.561
sub-24079	incongruent	1	0.797
sub-24079	congruent	1	0.710
sub-24079	congruent	1	0.500
sub-24079	congruent	1	0.665
sub-24079	incongruent	1	0.757
sub-24079	incongruent	1	1.037
sub-24079	congruent	1	0.739
sub-24079	congruent	1	0.642
sub-24079	congruent	1	0.675
sub-24079	incongruent	1	1.107
sub-24079	congruent	1	0.574
sub-24079	congruent	1	0.653
sub-24079	congruent	1	0.773
sub-24079	congruent	1	0.614
sub-24079	incongruent	1	0.853
sub-24079	congruent	1	0.740
sub-24079	congruent	1	0.712
sub-24079	incongruent	1	0.759
sub-24079	incongruent	1	0.990
sub-24079	incongruent	1	1.081
sub-24079	incongruent	1	0.924
sub-24079	congruent	1	1.068
sub-24079	incongruent	1	1.162
sub-24079	congruent	1	0.792
sub-24079	congruent	1	0.926
sub-24079	incongruent	0	0.612
sub-24079	incongruent	1	0.814
sub-24079	congruent	1	0.869
sub-24079	incongruent	1	1.274
sub-24079	incongruent	1	1.761
sub-24079	congruent	1	0.648
sub-24079	incongruent	0	0.000
sub-24079	congruent	1	0.887
sub-24079	incongruent	0	0.650
sub-24079	congruent	1	0.672
sub-24079	congruent	1	0.636
sub-24079	incongruent	1	0.868
sub-24079	incongruent	1	0.747
sub-24079	congruent	1	0.733
sub-24079	incongruent	1	0.986
sub-24079	incongruent	1	1.147
sub-24079	incongruent	1	0.847
sub-24079	congruent	1	0.668
sub-24079	incongruent	1	1.147
sub-24079	incongruent	1	1.326
sub-24079	incongruent	1	0.715
sub-24079	incongruent	1	0.931
sub-24079	congruent	1	0.611
sub-24079	congruent	1	0.590
sub-24079	congruent	1	0.619
sub-24079	incongruent	1	1.041
sub-24079	congruent	1	0.577
sub-24079	congruent	1	0.617
sub-24079	congruent	1	0.576
sub-24079	incongruent	1	1.034
sub-24079	congruent	1	0.936
sub-24079	congruent	1	0.774
sub-24079	congruent	1	0.585
sub-24079	congruent	1	0.631
sub-24079	incongruent	1	1.253
sub-24079	incongruent	1	0.964
sub-24079	congruent	1	0.636
sub-24079	incongruent	1	1.023
sub-24079	congruent	1	0.722
sub-24079	incongruent	1	1.088
sub-24079	congruent	1	0.812
sub-24079	congruent	1	0.650
sub-24079	incongruent	1	0.900
sub-24079	congruent	1	1.173
sub-24079	congruent	1	0.706
sub-24079	congruent	1	0.553
sub-24079	congruent	1	1.749
sub-24079	incongruent	0	0.401
sub-24079	incongruent	1	0.909
sub-24079	incongruent	1	0.769
sub-24079	incongruent	1	0.797
sub-24079	congruent	1	0.597
sub-24079	incongruent	0	0.427
sub-24079	congruent	1	0.637
sub-24079	incongruent	1	0.980
sub-24079	congruent	1	0.973
sub-24079	incongruent	1	0.907
sub-24079	incongruent	1	1.121
sub-24079	congruent	1	0.695
sub-24079	congruent	1	0.850
sub-24079	incongruent	1	0.988
sub-24079	incongruent	1	1.082
sub-24079	incongruent	1	0.971
sub-24079	congruent	1	0.681
sub-24079	incongruent	1	1.037
sub-24079	incongruent	1	0.947
sub-24079	congruent	1	0.771
sub-24079	congruent	1	0.509
sub-24079	incongruent	1	0.947
sub-24079	incongruent	1	1.333
sub-24079	congruent	1	0.906
sub-24079	congruent	1	0.612
sub-24079	incongruent	1	0.885
sub-24079	congruent	1	0.770
sub-24079	incongruent	1	0.912
sub-24079	congruent	1	0.832
sub-24079	congruent	1	0.702
sub-24079	incongruent	1	1.073
sub-24079	incongruent	0	0.345
sub-24079	congruent	1	0.528
sub-24079	incongruent	1	0.898
sub-24079	congruent	1	0.919
sub-24079	incongruent	1	1.195
sub-24079	incongruent	1	0.778
sub-24079	incongruent	1	0.847
sub-24079	incongruent	1	1.022
sub-24079	incongruent	1	0.684
sub-24079	incongruent	0	0.457
sub-24079	congruent	1	0.787
sub-24079	incongruent	1	0.823
sub-24079	congruent	1	0.624
sub-24079	incongruent	1	1.001
sub-24079	incongruent	1	0.753
sub-24079	congruent	1	0.756
sub-24079	congruent	1	0.795
sub-24079	incongruent	1	1.252
sub-24079	congruent	1	0.822
sub-24079	congruent	1	0.675
sub-24079	incongruent	1	1.097
sub-24079	congruent	1	0.957
sub-24079	incongruent	1	0.962
sub-24079	congruent	1	1.237
sub-24079	incongruent	0	0.000
sub-24079	congruent	1	0.528
sub-24079	congruent	1	0.720
sub-24079	congruent	1	0.674
sub-24079	congruent	0	0.686
sub-24079	incongruent	1	1.475
sub-24079	incongruent	1	1.420
sub-24079	congruent	1	1.325
sub-24079	congruent	1	0.721
sub-24079	incongruent	1	1.279
sub-24079	congruent	0	0.000
sub-24079	congruent	1	1.215
sub-24079	incongruent	1	1.629
sub-24079	congruent	0	1.819
sub-24079	incongruent	1	0.909
sub-24079	congruent	1	0.948
sub-24079	incongruent	1	0.978
sub-24079	congruent	1	0.856
sub-24079	congruent	1	0.668
sub-24079	incongruent	1	1.001
sub-24079	incongruent	1	0.968
sub-24079	incongruent	1	0.820
sub-24079	congruent	1	0.521
sub-24079	incongruent	0	1.581
sub-24079	incongruent	1	1.440
sub-24079	congruent	1	1.446
sub-24079	congruent	1	0.905
sub-24079	incongruent	1	1.210
sub-24079	congruent	1	0.997
sub-24079	congruent	1	1.855
sub-24079	incongruent	0	0.000
sub-24079	congruent	1	0.814
sub-24079	congruent	1	0.449
sub-24079	congruent	1	0.553
sub-24079	congruent	1	1.140
sub-24079	congruent	1	0.798
sub-24079	congruent	1	0.363
sub-24079	incongruent	1	1.216
sub-24079	congruent	1	0.932
sub-24079	congruent	1	1.029
sub-24079	congruent	1	1.092
sub-24079	incongruent	0	0.000
sub-24079	congruent	1	0.854
sub-24079	congruent	1	0.698
sub-24079	incongruent	0	0.000
sub-24079	congruent	0	0.000
sub-24079	incongruent	1	1.832
sub-24079	incongruent	0	0.000
sub-24079	incongruent	0	0.000
sub-24079	incongruent	0	0.000
sub-24079	incongruent	0	0.000
sub-24079	incongruent	1	1.077
sub-24079	congruent	1	1.921
sub-24079	incongruent	1	1.328
sub-24079	incongruent	0	0.000
sub-24079	incongruent	1	0.674
sub-24079	incongruent	1	0.955
sub-24079	congruent	1	0.733
sub-24079	congruent	1	0.729
sub-24079	congruent	1	0.825
sub-24079	incongruent	1	0.955
sub-24079	incongruent	1	1.090
sub-24079	congruent	1	0.719
sub-24079	incongruent	1	1.389
sub-24079	congruent	1	0.732
sub-24079	incongruent	0	0.000
sub-24079	congruent	1	0.719
sub-24079	incongruent	1	1.015
sub-24079	incongruent	0	0.000
sub-24079	incongruent	1	1.389
sub-24079	congruent	1	1.122
sub-24079	congruent	1	0.566
sub-24079	congruent	1	0.747
sub-24079	congruent	0	1.220
sub-24079	congruent	1	0.670
sub-24079	incongruent	1	1.539
sub-24079	congruent	0	0.549
sub-24079	incongruent	0	1.059
sub-24079	incongruent	0	0.457
sub-24079	incongruent	1	0.774
sub-24079	incongruent	1	0.730
sub-24079	congruent	1	0.739
sub-24079	incongruent	1	1.809
sub-24079	congruent	1	0.707
sub-24079	congruent	1	0.667
sub-24079	incongruent	1	1.641
sub-24079	incongruent	1	1.020
sub-24079	incongruent	1	1.434
sub-24079	congruent	1	0.797
sub-24079	incongruent	1	1.233
sub-24079	congruent	1	1.080
