onset	duration	startTime	stopTime	eventIdentifier	trial_type	trial_number	block_number	is_practice	fixation_color	cue_side	aoi_correct	aoi_incorrect
0.151	2.0	267787	269809	ShowFixation	ANTI	1	1	True	red	40	[1350 1830  405  675]	[ 90 570 405 675]
2.173	0.2	269809	270027	BlankScreen	ANTI	1	1	True	red	40	[1350 1830  405  675]	[ 90 570 405 675]
2.391	1.0	270027	271050	ELCue	ANTI	1	1	True	red	40	[1350 1830  405  675]	[ 90 570 405 675]
3.831	2.0	271467	274096	ShowFixation	ANTI	2	1	True	red	180	[1035 1515  405  675]	[405 885 405 675]
6.46	0.2	274096	274331	BlankScreen	ANTI	2	1	True	red	180	[1035 1515  405  675]	[405 885 405 675]
6.695	1.0	274331	275372	ELCue	ANTI	2	1	True	red	180	[1035 1515  405  675]	[405 885 405 675]
8.155	2.0	275791	278417	ShowFixation	ANTI	3	1	True	red	600	[ 90 570 405 675]	[1350 1830  405  675]
10.781	0.2	278417	278652	BlankScreen	ANTI	3	1	True	red	600	[ 90 570 405 675]	[1350 1830  405  675]
11.016	1.0	278652	279693	ELCue	ANTI	3	1	True	red	600	[ 90 570 405 675]	[1350 1830  405  675]
12.477	6.0	280113	286738	ShowFixation	ANTI	4	1	True	red	460	[405 885 405 675]	[1035 1515  405  675]
19.102	0.2	286738	286977	BlankScreen	ANTI	4	1	True	red	460	[405 885 405 675]	[1035 1515  405  675]
19.341	1.0	286977	288018	ELCue	ANTI	4	1	True	red	460	[405 885 405 675]	[1035 1515  405  675]
20.801	6.0	288437	295063	ShowFixation	VGS	5	1	True	lime	460	[1035 1515  405  675]	[405 885 405 675]
27.427	0.2	295063	295302	BlankScreen	VGS	5	1	True	lime	460	[1035 1515  405  675]	[405 885 405 675]
27.666	1.0	295302	296342	ELCue	VGS	5	1	True	lime	460	[1035 1515  405  675]	[405 885 405 675]
29.124	6.0	296760	303371	ShowFixation	ANTI	6	1	True	red	40	[1350 1830  405  675]	[ 90 570 405 675]
35.735	0.2	303371	303610	BlankScreen	ANTI	6	1	True	red	40	[1350 1830  405  675]	[ 90 570 405 675]
35.974	1.0	303610	304651	ELCue	ANTI	6	1	True	red	40	[1350 1830  405  675]	[ 90 570 405 675]
37.429	2.0	305065	307696	ShowFixation	VGS	7	1	True	lime	180	[405 885 405 675]	[1035 1515  405  675]
40.06	0.2	307696	307931	BlankScreen	VGS	7	1	True	lime	180	[405 885 405 675]	[1035 1515  405  675]
40.295	1.0	307931	308972	ELCue	VGS	7	1	True	lime	180	[405 885 405 675]	[1035 1515  405  675]
41.752	2.0	309388	312017	ShowFixation	VGS	8	1	True	lime	600	[1350 1830  405  675]	[ 90 570 405 675]
44.381	0.2	312017	312252	BlankScreen	VGS	8	1	True	lime	600	[1350 1830  405  675]	[ 90 570 405 675]
44.616	1.0	312252	313292	ELCue	VGS	8	1	True	lime	600	[1350 1830  405  675]	[ 90 570 405 675]
46.072	2.0	313708	316338	ShowFixation	VGS	9	1	True	lime	40	[ 90 570 405 675]	[1350 1830  405  675]
48.702	0.2	316338	316573	BlankScreen	VGS	9	1	True	lime	40	[ 90 570 405 675]	[1350 1830  405  675]
48.937	1.0	316573	317614	ELCue	VGS	9	1	True	lime	40	[ 90 570 405 675]	[1350 1830  405  675]
50.393	2.0	318029	320659	ShowFixation	VGS	10	1	True	lime	460	[1035 1515  405  675]	[405 885 405 675]
53.023	0.2	320659	320894	BlankScreen	VGS	10	1	True	lime	460	[1035 1515  405  675]	[405 885 405 675]
53.258	1.0	320894	321935	ELCue	VGS	10	1	True	lime	460	[1035 1515  405  675]	[405 885 405 675]
54.711	6.0	322347	328980	ShowFixation	VGS	11	1	True	lime	180	[405 885 405 675]	[1035 1515  405  675]
61.344	0.2	328980	329219	BlankScreen	VGS	11	1	True	lime	180	[405 885 405 675]	[1035 1515  405  675]
61.583	1.0	329219	330259	ELCue	VGS	11	1	True	lime	180	[405 885 405 675]	[1035 1515  405  675]
63.041	6.0	330677	337304	ShowFixation	VGS	12	1	True	lime	40	[ 90 570 405 675]	[1350 1830  405  675]
69.668	0.2	337304	337544	BlankScreen	VGS	12	1	True	lime	40	[ 90 570 405 675]	[1350 1830  405  675]
69.908	1.0	337544	338585	ELCue	VGS	12	1	True	lime	40	[ 90 570 405 675]	[1350 1830  405  675]
71.362	6.0	338998	345629	ShowFixation	ANTI	13	1	True	red	180	[1035 1515  405  675]	[405 885 405 675]
77.993	0.2	345629	345869	BlankScreen	ANTI	13	1	True	red	180	[1035 1515  405  675]	[405 885 405 675]
78.233	1.0	345869	346909	ELCue	ANTI	13	1	True	red	180	[1035 1515  405  675]	[405 885 405 675]
79.694	6.0	347330	353954	ShowFixation	VGS	14	1	True	lime	600	[1350 1830  405  675]	[ 90 570 405 675]
86.318	0.2	353954	354193	BlankScreen	VGS	14	1	True	lime	600	[1350 1830  405  675]	[ 90 570 405 675]
86.557	1.0	354193	355234	ELCue	VGS	14	1	True	lime	600	[1350 1830  405  675]	[ 90 570 405 675]
88.018	2.0	355654	358279	ShowFixation	ANTI	15	1	True	red	460	[405 885 405 675]	[1035 1515  405  675]
90.643	0.2	358279	358514	BlankScreen	ANTI	15	1	True	red	460	[405 885 405 675]	[1035 1515  405  675]
90.878	1.0	358514	359555	ELCue	ANTI	15	1	True	red	460	[405 885 405 675]	[1035 1515  405  675]
92.331	6.0	359967	366600	ShowFixation	ANTI	16	1	True	red	600	[ 90 570 405 675]	[1350 1830  405  675]
98.964	0.2	366600	366839	BlankScreen	ANTI	16	1	True	red	600	[ 90 570 405 675]	[1350 1830  405  675]
99.203	1.0	366839	367880	ELCue	ANTI	16	1	True	red	600	[ 90 570 405 675]	[1350 1830  405  675]
108.751	6.0	376387	382415	ShowFixation	VGS	17	2	False	lime	460	[1035 1515  405  675]	[405 885 405 675]
114.779	0.2	382415	382655	BlankScreen	VGS	17	2	False	lime	460	[1035 1515  405  675]	[405 885 405 675]
115.019	1.0	382655	383655	ELCue	VGS	17	2	False	lime	460	[1035 1515  405  675]	[405 885 405 675]
116.436	2.0	384072	386106	ShowFixation	ANTI	18	2	False	red	40	[1350 1830  405  675]	[ 90 570 405 675]
118.47	0.2	386106	386342	BlankScreen	ANTI	18	2	False	red	40	[1350 1830  405  675]	[ 90 570 405 675]
118.707	1.0	386343	387343	ELCue	ANTI	18	2	False	red	40	[1350 1830  405  675]	[ 90 570 405 675]
120.127	2.0	387763	389793	ShowFixation	ANTI	19	2	False	red	600	[ 90 570 405 675]	[1350 1830  405  675]
122.157	0.2	389793	390029	BlankScreen	ANTI	19	2	False	red	600	[ 90 570 405 675]	[1350 1830  405  675]
122.393	1.0	390029	391029	ELCue	ANTI	19	2	False	red	600	[ 90 570 405 675]	[1350 1830  405  675]
123.814	2.0	391450	393481	ShowFixation	VGS	20	2	False	lime	460	[1035 1515  405  675]	[405 885 405 675]
125.845	0.2	393481	393717	BlankScreen	VGS	20	2	False	lime	460	[1035 1515  405  675]	[405 885 405 675]
126.081	1.0	393717	394717	ELCue	VGS	20	2	False	lime	460	[1035 1515  405  675]	[405 885 405 675]
127.504	6.0	395140	401168	ShowFixation	ANTI	21	2	False	red	600	[ 90 570 405 675]	[1350 1830  405  675]
133.532	0.2	401168	401407	BlankScreen	ANTI	21	2	False	red	600	[ 90 570 405 675]	[1350 1830  405  675]
133.771	1.0	401407	402407	ELCue	ANTI	21	2	False	red	600	[ 90 570 405 675]	[1350 1830  405  675]
135.193	2.0	402829	404858	ShowFixation	ANTI	22	2	False	red	460	[405 885 405 675]	[1035 1515  405  675]
137.223	0.2	404859	405094	BlankScreen	ANTI	22	2	False	red	460	[405 885 405 675]	[1035 1515  405  675]
137.458	1.0	405094	406094	ELCue	ANTI	22	2	False	red	460	[405 885 405 675]	[1035 1515  405  675]
138.881	2.0	406517	408545	ShowFixation	ANTI	23	2	False	red	180	[1035 1515  405  675]	[405 885 405 675]
140.909	0.2	408545	408780	BlankScreen	ANTI	23	2	False	red	180	[1035 1515  405  675]	[405 885 405 675]
141.144	1.0	408780	409780	ELCue	ANTI	23	2	False	red	180	[1035 1515  405  675]	[405 885 405 675]
142.565	2.0	410201	412232	ShowFixation	ANTI	24	2	False	red	180	[1035 1515  405  675]	[405 885 405 675]
144.596	0.2	412232	412467	BlankScreen	ANTI	24	2	False	red	180	[1035 1515  405  675]	[405 885 405 675]
144.831	1.0	412467	413467	ELCue	ANTI	24	2	False	red	180	[1035 1515  405  675]	[405 885 405 675]
146.248	2.0	413884	415919	ShowFixation	VGS	25	2	False	lime	460	[1035 1515  405  675]	[405 885 405 675]
148.283	0.2	415919	416154	BlankScreen	VGS	25	2	False	lime	460	[1035 1515  405  675]	[405 885 405 675]
148.518	1.0	416154	417154	ELCue	VGS	25	2	False	lime	460	[1035 1515  405  675]	[405 885 405 675]
150.096	6.0	417732	423757	ShowFixation	VGS	26	2	False	lime	600	[1350 1830  405  675]	[ 90 570 405 675]
156.121	0.2	423757	423996	BlankScreen	VGS	26	2	False	lime	600	[1350 1830  405  675]	[ 90 570 405 675]
156.36	1.0	423996	424996	ELCue	VGS	26	2	False	lime	600	[1350 1830  405  675]	[ 90 570 405 675]
157.781	6.0	425417	431448	ShowFixation	ANTI	27	2	False	red	40	[1350 1830  405  675]	[ 90 570 405 675]
163.812	0.2	431448	431687	BlankScreen	ANTI	27	2	False	red	40	[1350 1830  405  675]	[ 90 570 405 675]
164.051	1.0	431687	432687	ELCue	ANTI	27	2	False	red	40	[1350 1830  405  675]	[ 90 570 405 675]
165.472	2.0	433108	435139	ShowFixation	VGS	28	2	False	lime	40	[ 90 570 405 675]	[1350 1830  405  675]
167.503	0.2	435139	435374	BlankScreen	VGS	28	2	False	lime	40	[ 90 570 405 675]	[1350 1830  405  675]
167.738	1.0	435374	436374	ELCue	VGS	28	2	False	lime	40	[ 90 570 405 675]	[1350 1830  405  675]
169.156	6.0	436792	442826	ShowFixation	ANTI	29	2	False	red	180	[1035 1515  405  675]	[405 885 405 675]
175.19	0.2	442826	443065	BlankScreen	ANTI	29	2	False	red	180	[1035 1515  405  675]	[405 885 405 675]
175.429	1.0	443065	444065	ELCue	ANTI	29	2	False	red	180	[1035 1515  405  675]	[405 885 405 675]
176.847	6.0	444483	450517	ShowFixation	ANTI	30	2	False	red	460	[405 885 405 675]	[1035 1515  405  675]
182.881	0.2	450517	450756	BlankScreen	ANTI	30	2	False	red	460	[405 885 405 675]	[1035 1515  405  675]
183.12	1.0	450756	451756	ELCue	ANTI	30	2	False	red	460	[405 885 405 675]	[1035 1515  405  675]
184.544	6.0	452180	458208	ShowFixation	VGS	31	2	False	lime	600	[1350 1830  405  675]	[ 90 570 405 675]
190.572	0.2	458208	458447	BlankScreen	VGS	31	2	False	lime	600	[1350 1830  405  675]	[ 90 570 405 675]
190.811	1.0	458447	459447	ELCue	VGS	31	2	False	lime	600	[1350 1830  405  675]	[ 90 570 405 675]
192.232	6.0	459868	465899	ShowFixation	ANTI	32	2	False	red	40	[1350 1830  405  675]	[ 90 570 405 675]
198.263	0.2	465899	466138	BlankScreen	ANTI	32	2	False	red	40	[1350 1830  405  675]	[ 90 570 405 675]
198.502	1.0	466138	467138	ELCue	ANTI	32	2	False	red	40	[1350 1830  405  675]	[ 90 570 405 675]
199.916	2.0	467552	469590	ShowFixation	ANTI	33	2	False	red	460	[405 885 405 675]	[1035 1515  405  675]
201.954	0.2	469590	469825	BlankScreen	ANTI	33	2	False	red	460	[405 885 405 675]	[1035 1515  405  675]
202.189	1.0	469825	470825	ELCue	ANTI	33	2	False	red	460	[405 885 405 675]	[1035 1515  405  675]
203.575	6.0	471211	477243	ShowFixation	ANTI	34	2	False	red	180	[1035 1515  405  675]	[405 885 405 675]
209.607	0.2	477243	477482	BlankScreen	ANTI	34	2	False	red	180	[1035 1515  405  675]	[405 885 405 675]
209.846	1.0	477482	478482	ELCue	ANTI	34	2	False	red	180	[1035 1515  405  675]	[405 885 405 675]
211.262	2.0	478898	480934	ShowFixation	VGS	35	2	False	lime	600	[1350 1830  405  675]	[ 90 570 405 675]
213.298	0.2	480934	481169	BlankScreen	VGS	35	2	False	lime	600	[1350 1830  405  675]	[ 90 570 405 675]
213.533	1.0	481169	482169	ELCue	VGS	35	2	False	lime	600	[1350 1830  405  675]	[ 90 570 405 675]
214.957	6.0	482593	488621	ShowFixation	ANTI	36	2	False	red	600	[ 90 570 405 675]	[1350 1830  405  675]
220.985	0.2	488621	488860	BlankScreen	ANTI	36	2	False	red	600	[ 90 570 405 675]	[1350 1830  405  675]
221.224	1.0	488860	489860	ELCue	ANTI	36	2	False	red	600	[ 90 570 405 675]	[1350 1830  405  675]
222.648	2.0	490284	492312	ShowFixation	VGS	37	2	False	lime	40	[ 90 570 405 675]	[1350 1830  405  675]
224.676	0.2	492312	492547	BlankScreen	VGS	37	2	False	lime	40	[ 90 570 405 675]	[1350 1830  405  675]
224.911	1.0	492547	493547	ELCue	VGS	37	2	False	lime	40	[ 90 570 405 675]	[1350 1830  405  675]
226.337	2.0	493973	495999	ShowFixation	ANTI	38	2	False	red	40	[1350 1830  405  675]	[ 90 570 405 675]
228.363	0.2	495999	496234	BlankScreen	ANTI	38	2	False	red	40	[1350 1830  405  675]	[ 90 570 405 675]
228.598	1.0	496234	497234	ELCue	ANTI	38	2	False	red	40	[1350 1830  405  675]	[ 90 570 405 675]
230.022	6.0	497658	503686	ShowFixation	VGS	39	2	False	lime	40	[ 90 570 405 675]	[1350 1830  405  675]
236.05	0.2	503686	503925	BlankScreen	VGS	39	2	False	lime	40	[ 90 570 405 675]	[1350 1830  405  675]
236.289	1.0	503925	504925	ELCue	VGS	39	2	False	lime	40	[ 90 570 405 675]	[1350 1830  405  675]
237.708	2.0	505344	507377	ShowFixation	VGS	40	2	False	lime	180	[405 885 405 675]	[1035 1515  405  675]
239.741	0.2	507377	507612	BlankScreen	VGS	40	2	False	lime	180	[405 885 405 675]	[1035 1515  405  675]
239.976	1.0	507612	508612	ELCue	VGS	40	2	False	lime	180	[405 885 405 675]	[1035 1515  405  675]
241.382	6.0	509018	515047	ShowFixation	VGS	41	2	False	lime	180	[405 885 405 675]	[1035 1515  405  675]
247.411	0.2	515047	515286	BlankScreen	VGS	41	2	False	lime	180	[405 885 405 675]	[1035 1515  405  675]
247.65	1.0	515286	516286	ELCue	VGS	41	2	False	lime	180	[405 885 405 675]	[1035 1515  405  675]
249.072	6.0	516708	522738	ShowFixation	VGS	42	2	False	lime	180	[405 885 405 675]	[1035 1515  405  675]
255.102	0.2	522738	522977	BlankScreen	VGS	42	2	False	lime	180	[405 885 405 675]	[1035 1515  405  675]
255.341	1.0	522977	523977	ELCue	VGS	42	2	False	lime	180	[405 885 405 675]	[1035 1515  405  675]
256.762	2.0	524398	526429	ShowFixation	VGS	43	2	False	lime	180	[405 885 405 675]	[1035 1515  405  675]
258.793	0.2	526429	526664	BlankScreen	VGS	43	2	False	lime	180	[405 885 405 675]	[1035 1515  405  675]
259.028	1.0	526664	527664	ELCue	VGS	43	2	False	lime	180	[405 885 405 675]	[1035 1515  405  675]
260.45	2.0	528086	530116	ShowFixation	VGS	44	2	False	lime	600	[1350 1830  405  675]	[ 90 570 405 675]
262.48	0.2	530116	530351	BlankScreen	VGS	44	2	False	lime	600	[1350 1830  405  675]	[ 90 570 405 675]
262.715	1.0	530351	531351	ELCue	VGS	44	2	False	lime	600	[1350 1830  405  675]	[ 90 570 405 675]
264.138	2.0	531774	533804	ShowFixation	ANTI	45	2	False	red	600	[ 90 570 405 675]	[1350 1830  405  675]
266.168	0.2	533804	534038	BlankScreen	ANTI	45	2	False	red	600	[ 90 570 405 675]	[1350 1830  405  675]
266.403	1.0	534039	535039	ELCue	ANTI	45	2	False	red	600	[ 90 570 405 675]	[1350 1830  405  675]
267.824	6.0	535460	541491	ShowFixation	ANTI	46	2	False	red	460	[405 885 405 675]	[1035 1515  405  675]
273.855	0.2	541491	541730	BlankScreen	ANTI	46	2	False	red	460	[405 885 405 675]	[1035 1515  405  675]
274.094	1.0	541730	542730	ELCue	ANTI	46	2	False	red	460	[405 885 405 675]	[1035 1515  405  675]
275.518	6.0	543154	549182	ShowFixation	VGS	47	2	False	lime	40	[ 90 570 405 675]	[1350 1830  405  675]
281.546	0.2	549182	549421	BlankScreen	VGS	47	2	False	lime	40	[ 90 570 405 675]	[1350 1830  405  675]
281.785	1.0	549421	550421	ELCue	VGS	47	2	False	lime	40	[ 90 570 405 675]	[1350 1830  405  675]
283.205	6.0	550841	556873	ShowFixation	VGS	48	2	False	lime	460	[1035 1515  405  675]	[405 885 405 675]
289.237	0.2	556873	557112	BlankScreen	VGS	48	2	False	lime	460	[1035 1515  405  675]	[405 885 405 675]
289.476	1.0	557112	558112	ELCue	VGS	48	2	False	lime	460	[1035 1515  405  675]	[405 885 405 675]
313.583	2.0	581219	583253	ShowFixation	ANTI	49	3	False	red	40	[1350 1830  405  675]	[ 90 570 405 675]
315.617	0.2	583253	583488	BlankScreen	ANTI	49	3	False	red	40	[1350 1830  405  675]	[ 90 570 405 675]
315.852	1.0	583488	584488	ELCue	ANTI	49	3	False	red	40	[1350 1830  405  675]	[ 90 570 405 675]
317.357	6.0	584993	591023	ShowFixation	ANTI	50	3	False	red	180	[1035 1515  405  675]	[405 885 405 675]
323.387	0.2	591023	591262	BlankScreen	ANTI	50	3	False	red	180	[1035 1515  405  675]	[405 885 405 675]
323.626	1.0	591262	592262	ELCue	ANTI	50	3	False	red	180	[1035 1515  405  675]	[405 885 405 675]
325.046	6.0	592682	598714	ShowFixation	ANTI	51	3	False	red	40	[1350 1830  405  675]	[ 90 570 405 675]
331.078	0.2	598714	598953	BlankScreen	ANTI	51	3	False	red	40	[1350 1830  405  675]	[ 90 570 405 675]
331.317	1.0	598953	599953	ELCue	ANTI	51	3	False	red	40	[1350 1830  405  675]	[ 90 570 405 675]
332.733	6.0	600369	606405	ShowFixation	VGS	52	3	False	lime	460	[1035 1515  405  675]	[405 885 405 675]
338.769	0.2	606405	606644	BlankScreen	VGS	52	3	False	lime	460	[1035 1515  405  675]	[405 885 405 675]
339.008	1.0	606644	607644	ELCue	VGS	52	3	False	lime	460	[1035 1515  405  675]	[405 885 405 675]
340.425	2.0	608061	610096	ShowFixation	ANTI	53	3	False	red	600	[ 90 570 405 675]	[1350 1830  405  675]
342.46	0.2	610096	610331	BlankScreen	ANTI	53	3	False	red	600	[ 90 570 405 675]	[1350 1830  405  675]
342.695	1.0	610331	611331	ELCue	ANTI	53	3	False	red	600	[ 90 570 405 675]	[1350 1830  405  675]
344.116	6.0	611752	617783	ShowFixation	ANTI	54	3	False	red	460	[405 885 405 675]	[1035 1515  405  675]
350.147	0.2	617783	618022	BlankScreen	ANTI	54	3	False	red	460	[405 885 405 675]	[1035 1515  405  675]
350.386	1.0	618022	619022	ELCue	ANTI	54	3	False	red	460	[405 885 405 675]	[1035 1515  405  675]
351.803	2.0	619439	621474	ShowFixation	ANTI	55	3	False	red	180	[1035 1515  405  675]	[405 885 405 675]
353.838	0.2	621474	621709	BlankScreen	ANTI	55	3	False	red	180	[1035 1515  405  675]	[405 885 405 675]
354.073	1.0	621709	622709	ELCue	ANTI	55	3	False	red	180	[1035 1515  405  675]	[405 885 405 675]
355.496	2.0	623132	625161	ShowFixation	ANTI	56	3	False	red	40	[1350 1830  405  675]	[ 90 570 405 675]
357.525	0.2	625161	625396	BlankScreen	ANTI	56	3	False	red	40	[1350 1830  405  675]	[ 90 570 405 675]
357.76	1.0	625396	626396	ELCue	ANTI	56	3	False	red	40	[1350 1830  405  675]	[ 90 570 405 675]
359.183	2.0	626819	628847	ShowFixation	VGS	57	3	False	lime	460	[1035 1515  405  675]	[405 885 405 675]
361.211	0.2	628847	629083	BlankScreen	VGS	57	3	False	lime	460	[1035 1515  405  675]	[405 885 405 675]
361.447	1.0	629083	630083	ELCue	VGS	57	3	False	lime	460	[1035 1515  405  675]	[405 885 405 675]
362.867	2.0	630503	632534	ShowFixation	VGS	58	3	False	lime	180	[405 885 405 675]	[1035 1515  405  675]
364.898	0.2	632534	632770	BlankScreen	VGS	58	3	False	lime	180	[405 885 405 675]	[1035 1515  405  675]
365.134	1.0	632770	633770	ELCue	VGS	58	3	False	lime	180	[405 885 405 675]	[1035 1515  405  675]
366.552	2.0	634188	636221	ShowFixation	ANTI	59	3	False	red	180	[1035 1515  405  675]	[405 885 405 675]
368.585	0.2	636221	636457	BlankScreen	ANTI	59	3	False	red	180	[1035 1515  405  675]	[405 885 405 675]
368.821	1.0	636457	637457	ELCue	ANTI	59	3	False	red	180	[1035 1515  405  675]	[405 885 405 675]
370.244	6.0	637880	643908	ShowFixation	VGS	60	3	False	lime	180	[405 885 405 675]	[1035 1515  405  675]
376.272	0.2	643908	644148	BlankScreen	VGS	60	3	False	lime	180	[405 885 405 675]	[1035 1515  405  675]
376.512	1.0	644148	645148	ELCue	VGS	60	3	False	lime	180	[405 885 405 675]	[1035 1515  405  675]
377.93	6.0	645566	651599	ShowFixation	ANTI	61	3	False	red	180	[1035 1515  405  675]	[405 885 405 675]
383.963	0.2	651599	651839	BlankScreen	ANTI	61	3	False	red	180	[1035 1515  405  675]	[405 885 405 675]
384.203	1.0	651839	652839	ELCue	ANTI	61	3	False	red	180	[1035 1515  405  675]	[405 885 405 675]
385.622	6.0	653258	659290	ShowFixation	VGS	62	3	False	lime	600	[1350 1830  405  675]	[ 90 570 405 675]
391.654	0.2	659290	659529	BlankScreen	VGS	62	3	False	lime	600	[1350 1830  405  675]	[ 90 570 405 675]
391.893	1.0	659529	660529	ELCue	VGS	62	3	False	lime	600	[1350 1830  405  675]	[ 90 570 405 675]
393.317	2.0	660953	662981	ShowFixation	VGS	63	3	False	lime	460	[1035 1515  405  675]	[405 885 405 675]
395.345	0.2	662981	663216	BlankScreen	VGS	63	3	False	lime	460	[1035 1515  405  675]	[405 885 405 675]
395.58	1.0	663216	664216	ELCue	VGS	63	3	False	lime	460	[1035 1515  405  675]	[405 885 405 675]
397.001	6.0	664637	670668	ShowFixation	VGS	64	3	False	lime	40	[ 90 570 405 675]	[1350 1830  405  675]
403.032	0.2	670668	670907	BlankScreen	VGS	64	3	False	lime	40	[ 90 570 405 675]	[1350 1830  405  675]
403.271	1.0	670907	671907	ELCue	VGS	64	3	False	lime	40	[ 90 570 405 675]	[1350 1830  405  675]
404.695	2.0	672331	674359	ShowFixation	VGS	65	3	False	lime	600	[1350 1830  405  675]	[ 90 570 405 675]
406.723	0.2	674359	674594	BlankScreen	VGS	65	3	False	lime	600	[1350 1830  405  675]	[ 90 570 405 675]
406.959	1.0	674595	675595	ELCue	VGS	65	3	False	lime	600	[1350 1830  405  675]	[ 90 570 405 675]
408.383	2.0	676019	678046	ShowFixation	VGS	66	3	False	lime	40	[ 90 570 405 675]	[1350 1830  405  675]
410.41	0.2	678046	678281	BlankScreen	VGS	66	3	False	lime	40	[ 90 570 405 675]	[1350 1830  405  675]
410.646	1.0	678282	679282	ELCue	VGS	66	3	False	lime	40	[ 90 570 405 675]	[1350 1830  405  675]
412.068	6.0	679704	685733	ShowFixation	ANTI	67	3	False	red	600	[ 90 570 405 675]	[1350 1830  405  675]
418.097	0.2	685733	685972	BlankScreen	ANTI	67	3	False	red	600	[ 90 570 405 675]	[1350 1830  405  675]
418.337	1.0	685973	686973	ELCue	ANTI	67	3	False	red	600	[ 90 570 405 675]	[1350 1830  405  675]
419.755	2.0	687391	689424	ShowFixation	VGS	68	3	False	lime	40	[ 90 570 405 675]	[1350 1830  405  675]
421.789	0.2	689425	689660	BlankScreen	VGS	68	3	False	lime	40	[ 90 570 405 675]	[1350 1830  405  675]
422.024	1.0	689660	690660	ELCue	VGS	68	3	False	lime	40	[ 90 570 405 675]	[1350 1830  405  675]
423.448	6.0	691084	697112	ShowFixation	VGS	69	3	False	lime	180	[405 885 405 675]	[1035 1515  405  675]
429.476	0.2	697112	697351	BlankScreen	VGS	69	3	False	lime	180	[405 885 405 675]	[1035 1515  405  675]
429.715	1.0	697351	698351	ELCue	VGS	69	3	False	lime	180	[405 885 405 675]	[1035 1515  405  675]
431.137	2.0	698773	700803	ShowFixation	ANTI	70	3	False	red	460	[405 885 405 675]	[1035 1515  405  675]
433.167	0.2	700803	701038	BlankScreen	ANTI	70	3	False	red	460	[405 885 405 675]	[1035 1515  405  675]
433.402	1.0	701038	702038	ELCue	ANTI	70	3	False	red	460	[405 885 405 675]	[1035 1515  405  675]
434.823	6.0	702459	708490	ShowFixation	ANTI	71	3	False	red	600	[ 90 570 405 675]	[1350 1830  405  675]
440.854	0.2	708490	708729	BlankScreen	ANTI	71	3	False	red	600	[ 90 570 405 675]	[1350 1830  405  675]
441.093	1.0	708729	709729	ELCue	ANTI	71	3	False	red	600	[ 90 570 405 675]	[1350 1830  405  675]
442.49	6.0	710126	716164	ShowFixation	VGS	72	3	False	lime	40	[ 90 570 405 675]	[1350 1830  405  675]
448.528	0.2	716164	716403	BlankScreen	VGS	72	3	False	lime	40	[ 90 570 405 675]	[1350 1830  405  675]
448.767	1.0	716403	717403	ELCue	VGS	72	3	False	lime	40	[ 90 570 405 675]	[1350 1830  405  675]
450.187	6.0	717823	723855	ShowFixation	ANTI	73	3	False	red	460	[405 885 405 675]	[1035 1515  405  675]
456.219	0.2	723855	724094	BlankScreen	ANTI	73	3	False	red	460	[405 885 405 675]	[1035 1515  405  675]
456.458	1.0	724094	725094	ELCue	ANTI	73	3	False	red	460	[405 885 405 675]	[1035 1515  405  675]
457.875	2.0	725511	727546	ShowFixation	ANTI	74	3	False	red	600	[ 90 570 405 675]	[1350 1830  405  675]
459.91	0.2	727546	727781	BlankScreen	ANTI	74	3	False	red	600	[ 90 570 405 675]	[1350 1830  405  675]
460.145	1.0	727781	728781	ELCue	ANTI	74	3	False	red	600	[ 90 570 405 675]	[1350 1830  405  675]
461.569	2.0	729205	731233	ShowFixation	ANTI	75	3	False	red	460	[405 885 405 675]	[1035 1515  405  675]
463.597	0.2	731233	731468	BlankScreen	ANTI	75	3	False	red	460	[405 885 405 675]	[1035 1515  405  675]
463.832	1.0	731468	732468	ELCue	ANTI	75	3	False	red	460	[405 885 405 675]	[1035 1515  405  675]
465.221	2.0	732857	734886	ShowFixation	VGS	76	3	False	lime	180	[405 885 405 675]	[1035 1515  405  675]
467.25	0.2	734886	735122	BlankScreen	VGS	76	3	False	lime	180	[405 885 405 675]	[1035 1515  405  675]
467.486	1.0	735122	736122	ELCue	VGS	76	3	False	lime	180	[405 885 405 675]	[1035 1515  405  675]
468.905	6.0	736541	742573	ShowFixation	VGS	77	3	False	lime	600	[1350 1830  405  675]	[ 90 570 405 675]
474.937	0.2	742573	742813	BlankScreen	VGS	77	3	False	lime	600	[1350 1830  405  675]	[ 90 570 405 675]
475.177	1.0	742813	743813	ELCue	VGS	77	3	False	lime	600	[1350 1830  405  675]	[ 90 570 405 675]
476.6	6.0	744236	750264	ShowFixation	VGS	78	3	False	lime	460	[1035 1515  405  675]	[405 885 405 675]
482.628	0.2	750264	750503	BlankScreen	VGS	78	3	False	lime	460	[1035 1515  405  675]	[405 885 405 675]
482.867	1.0	750503	751503	ELCue	VGS	78	3	False	lime	460	[1035 1515  405  675]	[405 885 405 675]
484.254	2.0	751890	753922	ShowFixation	VGS	79	3	False	lime	600	[1350 1830  405  675]	[ 90 570 405 675]
486.286	0.2	753922	754157	BlankScreen	VGS	79	3	False	lime	600	[1350 1830  405  675]	[ 90 570 405 675]
486.521	1.0	754157	755157	ELCue	VGS	79	3	False	lime	600	[1350 1830  405  675]	[ 90 570 405 675]
487.944	6.0	755580	761609	ShowFixation	ANTI	80	3	False	red	40	[1350 1830  405  675]	[ 90 570 405 675]
493.973	0.2	761609	761848	BlankScreen	ANTI	80	3	False	red	40	[1350 1830  405  675]	[ 90 570 405 675]
494.212	1.0	761848	762848	ELCue	ANTI	80	3	False	red	40	[1350 1830  405  675]	[ 90 570 405 675]
516.25	2.0	783886	785920	ShowFixation	ANTI	81	4	False	red	180	[1035 1515  405  675]	[405 885 405 675]
518.284	0.2	785920	786155	BlankScreen	ANTI	81	4	False	red	180	[1035 1515  405  675]	[405 885 405 675]
518.519	1.0	786155	787155	ELCue	ANTI	81	4	False	red	180	[1035 1515  405  675]	[405 885 405 675]
520.003	6.0	787639	793674	ShowFixation	ANTI	82	4	False	red	600	[ 90 570 405 675]	[1350 1830  405  675]
526.038	0.2	793674	793913	BlankScreen	ANTI	82	4	False	red	600	[ 90 570 405 675]	[1350 1830  405  675]
526.277	1.0	793913	794913	ELCue	ANTI	82	4	False	red	600	[ 90 570 405 675]	[1350 1830  405  675]
527.7	2.0	795336	797364	ShowFixation	VGS	83	4	False	lime	600	[1350 1830  405  675]	[ 90 570 405 675]
529.728	0.2	797364	797600	BlankScreen	VGS	83	4	False	lime	600	[1350 1830  405  675]	[ 90 570 405 675]
529.964	1.0	797600	798600	ELCue	VGS	83	4	False	lime	600	[1350 1830  405  675]	[ 90 570 405 675]
531.388	6.0	799024	805051	ShowFixation	ANTI	84	4	False	red	460	[405 885 405 675]	[1035 1515  405  675]
537.415	0.2	805051	805291	BlankScreen	ANTI	84	4	False	red	460	[405 885 405 675]	[1035 1515  405  675]
537.655	1.0	805291	806291	ELCue	ANTI	84	4	False	red	460	[405 885 405 675]	[1035 1515  405  675]
539.076	6.0	806712	812742	ShowFixation	ANTI	85	4	False	red	600	[ 90 570 405 675]	[1350 1830  405  675]
545.106	0.2	812742	812982	BlankScreen	ANTI	85	4	False	red	600	[ 90 570 405 675]	[1350 1830  405  675]
545.346	1.0	812982	813982	ELCue	ANTI	85	4	False	red	600	[ 90 570 405 675]	[1350 1830  405  675]
546.766	2.0	814402	816433	ShowFixation	VGS	86	4	False	lime	40	[ 90 570 405 675]	[1350 1830  405  675]
548.797	0.2	816433	816669	BlankScreen	VGS	86	4	False	lime	40	[ 90 570 405 675]	[1350 1830  405  675]
549.033	1.0	816669	817669	ELCue	VGS	86	4	False	lime	40	[ 90 570 405 675]	[1350 1830  405  675]
550.438	6.0	818074	824104	ShowFixation	ANTI	87	4	False	red	180	[1035 1515  405  675]	[405 885 405 675]
556.468	0.2	824104	824343	BlankScreen	ANTI	87	4	False	red	180	[1035 1515  405  675]	[405 885 405 675]
556.707	1.0	824343	825343	ELCue	ANTI	87	4	False	red	180	[1035 1515  405  675]	[405 885 405 675]
558.128	2.0	825764	827794	ShowFixation	VGS	88	4	False	lime	600	[1350 1830  405  675]	[ 90 570 405 675]
560.158	0.2	827794	828030	BlankScreen	VGS	88	4	False	lime	600	[1350 1830  405  675]	[ 90 570 405 675]
560.394	1.0	828030	829030	ELCue	VGS	88	4	False	lime	600	[1350 1830  405  675]	[ 90 570 405 675]
561.818	6.0	829454	835481	ShowFixation	ANTI	89	4	False	red	180	[1035 1515  405  675]	[405 885 405 675]
567.845	0.2	835481	835721	BlankScreen	ANTI	89	4	False	red	180	[1035 1515  405  675]	[405 885 405 675]
568.085	1.0	835721	836721	ELCue	ANTI	89	4	False	red	180	[1035 1515  405  675]	[405 885 405 675]
569.507	2.0	837143	839172	ShowFixation	VGS	90	4	False	lime	180	[405 885 405 675]	[1035 1515  405  675]
571.536	0.2	839172	839408	BlankScreen	VGS	90	4	False	lime	180	[405 885 405 675]	[1035 1515  405  675]
571.772	1.0	839408	840408	ELCue	VGS	90	4	False	lime	180	[405 885 405 675]	[1035 1515  405  675]
573.198	6.0	840834	846859	ShowFixation	ANTI	91	4	False	red	460	[405 885 405 675]	[1035 1515  405  675]
579.223	0.2	846859	847099	BlankScreen	ANTI	91	4	False	red	460	[405 885 405 675]	[1035 1515  405  675]
579.463	1.0	847099	848099	ELCue	ANTI	91	4	False	red	460	[405 885 405 675]	[1035 1515  405  675]
580.881	2.0	848517	850550	ShowFixation	VGS	92	4	False	lime	40	[ 90 570 405 675]	[1350 1830  405  675]
582.914	0.2	850550	850786	BlankScreen	VGS	92	4	False	lime	40	[ 90 570 405 675]	[1350 1830  405  675]
583.15	1.0	850786	851786	ELCue	VGS	92	4	False	lime	40	[ 90 570 405 675]	[1350 1830  405  675]
584.541	6.0	852177	858205	ShowFixation	VGS	93	4	False	lime	460	[1035 1515  405  675]	[405 885 405 675]
590.569	0.2	858205	858444	BlankScreen	VGS	93	4	False	lime	460	[1035 1515  405  675]	[405 885 405 675]
590.808	1.0	858444	859444	ELCue	VGS	93	4	False	lime	460	[1035 1515  405  675]	[405 885 405 675]
592.211	2.0	859847	861879	ShowFixation	VGS	94	4	False	lime	460	[1035 1515  405  675]	[405 885 405 675]
594.243	0.2	861879	862114	BlankScreen	VGS	94	4	False	lime	460	[1035 1515  405  675]	[405 885 405 675]
594.478	1.0	862114	863114	ELCue	VGS	94	4	False	lime	460	[1035 1515  405  675]	[405 885 405 675]
595.901	6.0	863537	869566	ShowFixation	VGS	95	4	False	lime	180	[405 885 405 675]	[1035 1515  405  675]
601.93	0.2	869566	869805	BlankScreen	VGS	95	4	False	lime	180	[405 885 405 675]	[1035 1515  405  675]
602.169	1.0	869805	870805	ELCue	VGS	95	4	False	lime	180	[405 885 405 675]	[1035 1515  405  675]
603.586	2.0	871222	873257	ShowFixation	ANTI	96	4	False	red	40	[1350 1830  405  675]	[ 90 570 405 675]
605.621	0.2	873257	873492	BlankScreen	ANTI	96	4	False	red	40	[1350 1830  405  675]	[ 90 570 405 675]
605.856	1.0	873492	874492	ELCue	ANTI	96	4	False	red	40	[1350 1830  405  675]	[ 90 570 405 675]
607.276	6.0	874912	880944	ShowFixation	ANTI	97	4	False	red	40	[1350 1830  405  675]	[ 90 570 405 675]
613.308	0.2	880944	881183	BlankScreen	ANTI	97	4	False	red	40	[1350 1830  405  675]	[ 90 570 405 675]
613.547	1.0	881183	882183	ELCue	ANTI	97	4	False	red	40	[1350 1830  405  675]	[ 90 570 405 675]
614.967	2.0	882603	884635	ShowFixation	ANTI	98	4	False	red	460	[405 885 405 675]	[1035 1515  405  675]
616.999	0.2	884635	884870	BlankScreen	ANTI	98	4	False	red	460	[405 885 405 675]	[1035 1515  405  675]
617.234	1.0	884870	885870	ELCue	ANTI	98	4	False	red	460	[405 885 405 675]	[1035 1515  405  675]
618.622	6.0	886258	892288	ShowFixation	VGS	99	4	False	lime	180	[405 885 405 675]	[1035 1515  405  675]
624.652	0.2	892288	892528	BlankScreen	VGS	99	4	False	lime	180	[405 885 405 675]	[1035 1515  405  675]
624.892	1.0	892528	893528	ELCue	VGS	99	4	False	lime	180	[405 885 405 675]	[1035 1515  405  675]
626.311	6.0	893947	899979	ShowFixation	VGS	100	4	False	lime	600	[1350 1830  405  675]	[ 90 570 405 675]
632.343	0.2	899979	900219	BlankScreen	VGS	100	4	False	lime	600	[1350 1830  405  675]	[ 90 570 405 675]
632.583	1.0	900219	901219	ELCue	VGS	100	4	False	lime	600	[1350 1830  405  675]	[ 90 570 405 675]
634.006	2.0	901642	903670	ShowFixation	ANTI	101	4	False	red	40	[1350 1830  405  675]	[ 90 570 405 675]
636.034	0.2	903670	903906	BlankScreen	ANTI	101	4	False	red	40	[1350 1830  405  675]	[ 90 570 405 675]
636.27	1.0	903906	904906	ELCue	ANTI	101	4	False	red	40	[1350 1830  405  675]	[ 90 570 405 675]
637.669	6.0	905305	911340	ShowFixation	VGS	102	4	False	lime	600	[1350 1830  405  675]	[ 90 570 405 675]
643.704	0.2	911340	911580	BlankScreen	VGS	102	4	False	lime	600	[1350 1830  405  675]	[ 90 570 405 675]
643.944	1.0	911580	912580	ELCue	VGS	102	4	False	lime	600	[1350 1830  405  675]	[ 90 570 405 675]
645.365	6.0	913001	919031	ShowFixation	VGS	103	4	False	lime	40	[ 90 570 405 675]	[1350 1830  405  675]
651.395	0.2	919031	919271	BlankScreen	VGS	103	4	False	lime	40	[ 90 570 405 675]	[1350 1830  405  675]
651.635	1.0	919271	920271	ELCue	VGS	103	4	False	lime	40	[ 90 570 405 675]	[1350 1830  405  675]
653.055	6.0	920691	926722	ShowFixation	ANTI	104	4	False	red	40	[1350 1830  405  675]	[ 90 570 405 675]
659.086	0.2	926722	926962	BlankScreen	ANTI	104	4	False	red	40	[1350 1830  405  675]	[ 90 570 405 675]
659.326	1.0	926962	927962	ELCue	ANTI	104	4	False	red	40	[1350 1830  405  675]	[ 90 570 405 675]
660.744	2.0	928380	930413	ShowFixation	ANTI	105	4	False	red	180	[1035 1515  405  675]	[405 885 405 675]
662.777	0.2	930413	930649	BlankScreen	ANTI	105	4	False	red	180	[1035 1515  405  675]	[405 885 405 675]
663.013	1.0	930649	931649	ELCue	ANTI	105	4	False	red	180	[1035 1515  405  675]	[405 885 405 675]
664.436	2.0	932072	934100	ShowFixation	ANTI	106	4	False	red	460	[405 885 405 675]	[1035 1515  405  675]
666.464	0.2	934100	934336	BlankScreen	ANTI	106	4	False	red	460	[405 885 405 675]	[1035 1515  405  675]
666.7	1.0	934336	935336	ELCue	ANTI	106	4	False	red	460	[405 885 405 675]	[1035 1515  405  675]
668.12	2.0	935756	937787	ShowFixation	VGS	107	4	False	lime	460	[1035 1515  405  675]	[405 885 405 675]
670.151	0.2	937787	938022	BlankScreen	VGS	107	4	False	lime	460	[1035 1515  405  675]	[405 885 405 675]
670.386	1.0	938022	939022	ELCue	VGS	107	4	False	lime	460	[1035 1515  405  675]	[405 885 405 675]
671.811	2.0	939447	941474	ShowFixation	ANTI	108	4	False	red	600	[ 90 570 405 675]	[1350 1830  405  675]
673.838	0.2	941474	941709	BlankScreen	ANTI	108	4	False	red	600	[ 90 570 405 675]	[1350 1830  405  675]
674.073	1.0	941709	942709	ELCue	ANTI	108	4	False	red	600	[ 90 570 405 675]	[1350 1830  405  675]
675.498	6.0	943134	949161	ShowFixation	VGS	109	4	False	lime	460	[1035 1515  405  675]	[405 885 405 675]
681.525	0.2	949161	949400	BlankScreen	VGS	109	4	False	lime	460	[1035 1515  405  675]	[405 885 405 675]
681.764	1.0	949400	950400	ELCue	VGS	109	4	False	lime	460	[1035 1515  405  675]	[405 885 405 675]
683.186	2.0	950822	952852	ShowFixation	VGS	110	4	False	lime	180	[405 885 405 675]	[1035 1515  405  675]
685.216	0.2	952852	953087	BlankScreen	VGS	110	4	False	lime	180	[405 885 405 675]	[1035 1515  405  675]
685.451	1.0	953087	954087	ELCue	VGS	110	4	False	lime	180	[405 885 405 675]	[1035 1515  405  675]
686.871	6.0	954507	960539	ShowFixation	VGS	111	4	False	lime	40	[ 90 570 405 675]	[1350 1830  405  675]
692.903	0.2	960539	960778	BlankScreen	VGS	111	4	False	lime	40	[ 90 570 405 675]	[1350 1830  405  675]
693.142	1.0	960778	961778	ELCue	VGS	111	4	False	lime	40	[ 90 570 405 675]	[1350 1830  405  675]
694.563	2.0	962199	964230	ShowFixation	ANTI	112	4	False	red	600	[ 90 570 405 675]	[1350 1830  405  675]
696.594	0.2	964230	964465	BlankScreen	ANTI	112	4	False	red	600	[ 90 570 405 675]	[1350 1830  405  675]
696.829	1.0	964465	965465	ELCue	ANTI	112	4	False	red	600	[ 90 570 405 675]	[1350 1830  405  675]
