onset	duration	startTime	stopTime	eventIdentifier	trial_type	trial_number	block_number	is_practice	fixation_color	cue_side	aoi_correct	aoi_incorrect
0.149	2.0	392429	394463	ShowFixation	ANTI	1	1	True	red	180	[1035 1515  405  675]	[405 885 405 675]
2.183	0.2	394463	394698	BlankScreen	ANTI	1	1	True	red	180	[1035 1515  405  675]	[405 885 405 675]
2.418	1.0	394698	395739	ELCue	ANTI	1	1	True	red	180	[1035 1515  405  675]	[405 885 405 675]
3.88	2.0	396160	398784	ShowFixation	ANTI	2	1	True	red	40	[1350 1830  405  675]	[ 90 570 405 675]
6.504	0.2	398784	399019	BlankScreen	ANTI	2	1	True	red	40	[1350 1830  405  675]	[ 90 570 405 675]
6.739	1.0	399019	400059	ELCue	ANTI	2	1	True	red	40	[1350 1830  405  675]	[ 90 570 405 675]
8.199	6.0	400479	407088	ShowFixation	VGS	3	1	True	lime	180	[405 885 405 675]	[1035 1515  405  675]
14.808	0.2	407088	407327	BlankScreen	VGS	3	1	True	lime	180	[405 885 405 675]	[1035 1515  405  675]
15.047	1.0	407327	408368	ELCue	VGS	3	1	True	lime	180	[405 885 405 675]	[1035 1515  405  675]
16.51	6.0	408790	415413	ShowFixation	VGS	4	1	True	lime	600	[1350 1830  405  675]	[ 90 570 405 675]
23.133	0.2	415413	415652	BlankScreen	VGS	4	1	True	lime	600	[1350 1830  405  675]	[ 90 570 405 675]
23.372	1.0	415652	416692	ELCue	VGS	4	1	True	lime	600	[1350 1830  405  675]	[ 90 570 405 675]
24.831	2.0	417111	419721	ShowFixation	ANTI	5	1	True	red	600	[ 90 570 405 675]	[1350 1830  405  675]
27.441	0.2	419721	419940	BlankScreen	ANTI	5	1	True	red	600	[ 90 570 405 675]	[1350 1830  405  675]
27.66	1.0	419940	420963	ELCue	ANTI	5	1	True	red	600	[ 90 570 405 675]	[1350 1830  405  675]
29.103	2.0	421383	424009	ShowFixation	ANTI	6	1	True	red	460	[405 885 405 675]	[1035 1515  405  675]
31.729	0.2	424009	424244	BlankScreen	ANTI	6	1	True	red	460	[405 885 405 675]	[1035 1515  405  675]
31.964	1.0	424244	425285	ELCue	ANTI	6	1	True	red	460	[405 885 405 675]	[1035 1515  405  675]
33.427	6.0	425707	432330	ShowFixation	ANTI	7	1	True	red	460	[405 885 405 675]	[1035 1515  405  675]
40.05	0.2	432330	432569	BlankScreen	ANTI	7	1	True	red	460	[405 885 405 675]	[1035 1515  405  675]
40.289	1.0	432569	433609	ELCue	ANTI	7	1	True	red	460	[405 885 405 675]	[1035 1515  405  675]
41.752	6.0	434032	440638	ShowFixation	ANTI	8	1	True	red	180	[1035 1515  405  675]	[405 885 405 675]
48.358	0.2	440638	440877	BlankScreen	ANTI	8	1	True	red	180	[1035 1515  405  675]	[405 885 405 675]
48.597	1.0	440877	441917	ELCue	ANTI	8	1	True	red	180	[1035 1515  405  675]	[405 885 405 675]
50.061	2.0	442341	444946	ShowFixation	VGS	9	1	True	lime	600	[1350 1830  405  675]	[ 90 570 405 675]
52.666	0.2	444946	445165	BlankScreen	VGS	9	1	True	lime	600	[1350 1830  405  675]	[ 90 570 405 675]
52.885	1.0	445165	446188	ELCue	VGS	9	1	True	lime	600	[1350 1830  405  675]	[ 90 570 405 675]
54.331	6.0	446611	453234	ShowFixation	ANTI	10	1	True	red	40	[1350 1830  405  675]	[ 90 570 405 675]
60.954	0.2	453234	453473	BlankScreen	ANTI	10	1	True	red	40	[1350 1830  405  675]	[ 90 570 405 675]
61.193	1.0	453473	454514	ELCue	ANTI	10	1	True	red	40	[1350 1830  405  675]	[ 90 570 405 675]
62.651	6.0	454931	461559	ShowFixation	VGS	11	1	True	lime	460	[1035 1515  405  675]	[405 885 405 675]
69.279	0.2	461559	461798	BlankScreen	VGS	11	1	True	lime	460	[1035 1515  405  675]	[405 885 405 675]
69.518	1.0	461798	462838	ELCue	VGS	11	1	True	lime	460	[1035 1515  405  675]	[405 885 405 675]
70.981	2.0	463261	465867	ShowFixation	VGS	12	1	True	lime	40	[ 90 570 405 675]	[1350 1830  405  675]
73.587	0.2	465867	466085	BlankScreen	VGS	12	1	True	lime	40	[ 90 570 405 675]	[1350 1830  405  675]
73.805	1.0	466085	467109	ELCue	VGS	12	1	True	lime	40	[ 90 570 405 675]	[1350 1830  405  675]
75.247	6.0	467527	474154	ShowFixation	ANTI	13	1	True	red	600	[ 90 570 405 675]	[1350 1830  405  675]
81.874	0.2	474154	474394	BlankScreen	ANTI	13	1	True	red	600	[ 90 570 405 675]	[1350 1830  405  675]
82.114	1.0	474394	475434	ELCue	ANTI	13	1	True	red	600	[ 90 570 405 675]	[1350 1830  405  675]
83.573	2.0	475853	478479	ShowFixation	VGS	14	1	True	lime	180	[405 885 405 675]	[1035 1515  405  675]
86.199	0.2	478479	478715	BlankScreen	VGS	14	1	True	lime	180	[405 885 405 675]	[1035 1515  405  675]
86.435	1.0	478715	479755	ELCue	VGS	14	1	True	lime	180	[405 885 405 675]	[1035 1515  405  675]
87.897	6.0	480177	486800	ShowFixation	VGS	15	1	True	lime	40	[ 90 570 405 675]	[1350 1830  405  675]
94.52	0.2	486800	487039	BlankScreen	VGS	15	1	True	lime	40	[ 90 570 405 675]	[1350 1830  405  675]
94.759	1.0	487039	488080	ELCue	VGS	15	1	True	lime	40	[ 90 570 405 675]	[1350 1830  405  675]
96.233	2.0	488513	491125	ShowFixation	VGS	16	1	True	lime	460	[1035 1515  405  675]	[405 885 405 675]
98.845	0.2	491125	491360	BlankScreen	VGS	16	1	True	lime	460	[1035 1515  405  675]	[405 885 405 675]
99.08	1.0	491360	492401	ELCue	VGS	16	1	True	lime	460	[1035 1515  405  675]	[405 885 405 675]
130.467	6.0	522747	528775	ShowFixation	ANTI	17	2	False	red	40	[1350 1830  405  675]	[ 90 570 405 675]
136.496	0.2	528776	529015	BlankScreen	ANTI	17	2	False	red	40	[1350 1830  405  675]	[ 90 570 405 675]
136.735	1.0	529015	530015	ELCue	ANTI	17	2	False	red	40	[1350 1830  405  675]	[ 90 570 405 675]
138.163	2.0	530443	532483	ShowFixation	VGS	18	2	False	lime	40	[ 90 570 405 675]	[1350 1830  405  675]
140.203	0.2	532483	532719	BlankScreen	VGS	18	2	False	lime	40	[ 90 570 405 675]	[1350 1830  405  675]
140.439	1.0	532719	533719	ELCue	VGS	18	2	False	lime	40	[ 90 570 405 675]	[1350 1830  405  675]
141.864	2.0	534144	536170	ShowFixation	VGS	19	2	False	lime	460	[1035 1515  405  675]	[405 885 405 675]
143.89	0.2	536170	536406	BlankScreen	VGS	19	2	False	lime	460	[1035 1515  405  675]	[405 885 405 675]
144.126	1.0	536406	537406	ELCue	VGS	19	2	False	lime	460	[1035 1515  405  675]	[405 885 405 675]
145.546	2.0	537826	539857	ShowFixation	VGS	20	2	False	lime	600	[1350 1830  405  675]	[ 90 570 405 675]
147.577	0.2	539857	540093	BlankScreen	VGS	20	2	False	lime	600	[1350 1830  405  675]	[ 90 570 405 675]
147.813	1.0	540093	541093	ELCue	VGS	20	2	False	lime	600	[1350 1830  405  675]	[ 90 570 405 675]
149.24	2.0	541520	543561	ShowFixation	ANTI	21	2	False	red	40	[1350 1830  405  675]	[ 90 570 405 675]
151.281	0.2	543561	543796	BlankScreen	ANTI	21	2	False	red	40	[1350 1830  405  675]	[ 90 570 405 675]
151.516	1.0	543796	544796	ELCue	ANTI	21	2	False	red	40	[1350 1830  405  675]	[ 90 570 405 675]
152.939	2.0	545219	547248	ShowFixation	VGS	22	2	False	lime	600	[1350 1830  405  675]	[ 90 570 405 675]
154.968	0.2	547248	547483	BlankScreen	VGS	22	2	False	lime	600	[1350 1830  405  675]	[ 90 570 405 675]
155.203	1.0	547483	548483	ELCue	VGS	22	2	False	lime	600	[1350 1830  405  675]	[ 90 570 405 675]
156.628	2.0	548908	550935	ShowFixation	ANTI	23	2	False	red	180	[1035 1515  405  675]	[405 885 405 675]
158.655	0.2	550935	551170	BlankScreen	ANTI	23	2	False	red	180	[1035 1515  405  675]	[405 885 405 675]
158.89	1.0	551170	552170	ELCue	ANTI	23	2	False	red	180	[1035 1515  405  675]	[405 885 405 675]
160.321	6.0	552601	558639	ShowFixation	VGS	24	2	False	lime	460	[1035 1515  405  675]	[405 885 405 675]
166.359	0.2	558639	558878	BlankScreen	VGS	24	2	False	lime	460	[1035 1515  405  675]	[405 885 405 675]
166.598	1.0	558878	559878	ELCue	VGS	24	2	False	lime	460	[1035 1515  405  675]	[405 885 405 675]
168.027	6.0	560307	566346	ShowFixation	ANTI	25	2	False	red	460	[405 885 405 675]	[1035 1515  405  675]
174.066	0.2	566346	566586	BlankScreen	ANTI	25	2	False	red	460	[405 885 405 675]	[1035 1515  405  675]
174.306	1.0	566586	567586	ELCue	ANTI	25	2	False	red	460	[405 885 405 675]	[1035 1515  405  675]
175.73	6.0	568010	574037	ShowFixation	ANTI	26	2	False	red	180	[1035 1515  405  675]	[405 885 405 675]
181.757	0.2	574037	574276	BlankScreen	ANTI	26	2	False	red	180	[1035 1515  405  675]	[405 885 405 675]
181.996	1.0	574276	575276	ELCue	ANTI	26	2	False	red	180	[1035 1515  405  675]	[405 885 405 675]
183.423	2.0	575703	577728	ShowFixation	VGS	27	2	False	lime	180	[405 885 405 675]	[1035 1515  405  675]
185.448	0.2	577728	577963	BlankScreen	VGS	27	2	False	lime	180	[405 885 405 675]	[1035 1515  405  675]
185.683	1.0	577963	578963	ELCue	VGS	27	2	False	lime	180	[405 885 405 675]	[1035 1515  405  675]
187.091	6.0	579371	585398	ShowFixation	ANTI	28	2	False	red	460	[405 885 405 675]	[1035 1515  405  675]
193.118	0.2	585398	585638	BlankScreen	ANTI	28	2	False	red	460	[405 885 405 675]	[1035 1515  405  675]
193.358	1.0	585638	586638	ELCue	ANTI	28	2	False	red	460	[405 885 405 675]	[1035 1515  405  675]
194.775	6.0	587055	593089	ShowFixation	VGS	29	2	False	lime	40	[ 90 570 405 675]	[1350 1830  405  675]
200.809	0.2	593089	593329	BlankScreen	VGS	29	2	False	lime	40	[ 90 570 405 675]	[1350 1830  405  675]
201.049	1.0	593329	594329	ELCue	VGS	29	2	False	lime	40	[ 90 570 405 675]	[1350 1830  405  675]
202.469	6.0	594749	600780	ShowFixation	ANTI	30	2	False	red	180	[1035 1515  405  675]	[405 885 405 675]
208.5	0.2	600780	601020	BlankScreen	ANTI	30	2	False	red	180	[1035 1515  405  675]	[405 885 405 675]
208.74	1.0	601020	602020	ELCue	ANTI	30	2	False	red	180	[1035 1515  405  675]	[405 885 405 675]
210.164	2.0	602444	604471	ShowFixation	VGS	31	2	False	lime	460	[1035 1515  405  675]	[405 885 405 675]
212.191	0.2	604471	604706	BlankScreen	VGS	31	2	False	lime	460	[1035 1515  405  675]	[405 885 405 675]
212.426	1.0	604706	605706	ELCue	VGS	31	2	False	lime	460	[1035 1515  405  675]	[405 885 405 675]
213.853	2.0	606133	608158	ShowFixation	ANTI	32	2	False	red	40	[1350 1830  405  675]	[ 90 570 405 675]
215.878	0.2	608158	608393	BlankScreen	ANTI	32	2	False	red	40	[1350 1830  405  675]	[ 90 570 405 675]
216.113	1.0	608393	609393	ELCue	ANTI	32	2	False	red	40	[1350 1830  405  675]	[ 90 570 405 675]
217.538	6.0	609818	615845	ShowFixation	VGS	33	2	False	lime	600	[1350 1830  405  675]	[ 90 570 405 675]
223.565	0.2	615845	616084	BlankScreen	VGS	33	2	False	lime	600	[1350 1830  405  675]	[ 90 570 405 675]
223.804	1.0	616084	617084	ELCue	VGS	33	2	False	lime	600	[1350 1830  405  675]	[ 90 570 405 675]
225.226	6.0	617506	623536	ShowFixation	VGS	34	2	False	lime	600	[1350 1830  405  675]	[ 90 570 405 675]
231.256	0.2	623536	623775	BlankScreen	VGS	34	2	False	lime	600	[1350 1830  405  675]	[ 90 570 405 675]
231.495	1.0	623775	624775	ELCue	VGS	34	2	False	lime	600	[1350 1830  405  675]	[ 90 570 405 675]
232.919	2.0	625199	627227	ShowFixation	ANTI	35	2	False	red	460	[405 885 405 675]	[1035 1515  405  675]
234.947	0.2	627227	627462	BlankScreen	ANTI	35	2	False	red	460	[405 885 405 675]	[1035 1515  405  675]
235.182	1.0	627462	628462	ELCue	ANTI	35	2	False	red	460	[405 885 405 675]	[1035 1515  405  675]
236.607	6.0	628887	634914	ShowFixation	VGS	36	2	False	lime	40	[ 90 570 405 675]	[1350 1830  405  675]
242.634	0.2	634914	635153	BlankScreen	VGS	36	2	False	lime	40	[ 90 570 405 675]	[1350 1830  405  675]
242.873	1.0	635153	636153	ELCue	VGS	36	2	False	lime	40	[ 90 570 405 675]	[1350 1830  405  675]
244.296	6.0	636576	642605	ShowFixation	VGS	37	2	False	lime	460	[1035 1515  405  675]	[405 885 405 675]
250.325	0.2	642605	642844	BlankScreen	VGS	37	2	False	lime	460	[1035 1515  405  675]	[405 885 405 675]
250.564	1.0	642844	643844	ELCue	VGS	37	2	False	lime	460	[1035 1515  405  675]	[405 885 405 675]
251.986	6.0	644266	650296	ShowFixation	ANTI	38	2	False	red	40	[1350 1830  405  675]	[ 90 570 405 675]
258.016	0.2	650296	650535	BlankScreen	ANTI	38	2	False	red	40	[1350 1830  405  675]	[ 90 570 405 675]
258.255	1.0	650535	651535	ELCue	ANTI	38	2	False	red	40	[1350 1830  405  675]	[ 90 570 405 675]
259.678	2.0	651958	653987	ShowFixation	ANTI	39	2	False	red	460	[405 885 405 675]	[1035 1515  405  675]
261.707	0.2	653987	654222	BlankScreen	ANTI	39	2	False	red	460	[405 885 405 675]	[1035 1515  405  675]
261.942	1.0	654222	655222	ELCue	ANTI	39	2	False	red	460	[405 885 405 675]	[1035 1515  405  675]
263.367	6.0	655647	661674	ShowFixation	VGS	40	2	False	lime	180	[405 885 405 675]	[1035 1515  405  675]
269.394	0.2	661674	661913	BlankScreen	VGS	40	2	False	lime	180	[405 885 405 675]	[1035 1515  405  675]
269.633	1.0	661913	662913	ELCue	VGS	40	2	False	lime	180	[405 885 405 675]	[1035 1515  405  675]
271.058	2.0	663338	665365	ShowFixation	ANTI	41	2	False	red	600	[ 90 570 405 675]	[1350 1830  405  675]
273.086	0.2	665366	665600	BlankScreen	ANTI	41	2	False	red	600	[ 90 570 405 675]	[1350 1830  405  675]
273.32	1.0	665600	666600	ELCue	ANTI	41	2	False	red	600	[ 90 570 405 675]	[1350 1830  405  675]
274.75	2.0	667030	669069	ShowFixation	ANTI	42	2	False	red	180	[1035 1515  405  675]	[405 885 405 675]
276.789	0.2	669069	669304	BlankScreen	ANTI	42	2	False	red	180	[1035 1515  405  675]	[405 885 405 675]
277.024	1.0	669304	670304	ELCue	ANTI	42	2	False	red	180	[1035 1515  405  675]	[405 885 405 675]
278.449	6.0	670729	676755	ShowFixation	ANTI	43	2	False	red	600	[ 90 570 405 675]	[1350 1830  405  675]
284.476	0.2	676756	676995	BlankScreen	ANTI	43	2	False	red	600	[ 90 570 405 675]	[1350 1830  405  675]
284.716	1.0	676996	677996	ELCue	ANTI	43	2	False	red	600	[ 90 570 405 675]	[1350 1830  405  675]
286.137	2.0	678417	680447	ShowFixation	ANTI	44	2	False	red	600	[ 90 570 405 675]	[1350 1830  405  675]
288.167	0.2	680447	680682	BlankScreen	ANTI	44	2	False	red	600	[ 90 570 405 675]	[1350 1830  405  675]
288.402	1.0	680682	681682	ELCue	ANTI	44	2	False	red	600	[ 90 570 405 675]	[1350 1830  405  675]
289.828	6.0	682108	688134	ShowFixation	VGS	45	2	False	lime	180	[405 885 405 675]	[1035 1515  405  675]
295.854	0.2	688134	688373	BlankScreen	VGS	45	2	False	lime	180	[405 885 405 675]	[1035 1515  405  675]
296.093	1.0	688373	689373	ELCue	VGS	45	2	False	lime	180	[405 885 405 675]	[1035 1515  405  675]
297.52	6.0	689800	695825	ShowFixation	ANTI	46	2	False	red	600	[ 90 570 405 675]	[1350 1830  405  675]
303.545	0.2	695825	696064	BlankScreen	ANTI	46	2	False	red	600	[ 90 570 405 675]	[1350 1830  405  675]
303.784	1.0	696064	697064	ELCue	ANTI	46	2	False	red	600	[ 90 570 405 675]	[1350 1830  405  675]
305.211	2.0	697491	699516	ShowFixation	VGS	47	2	False	lime	40	[ 90 570 405 675]	[1350 1830  405  675]
307.236	0.2	699516	699751	BlankScreen	VGS	47	2	False	lime	40	[ 90 570 405 675]	[1350 1830  405  675]
307.471	1.0	699751	700751	ELCue	VGS	47	2	False	lime	40	[ 90 570 405 675]	[1350 1830  405  675]
308.896	2.0	701176	703203	ShowFixation	VGS	48	2	False	lime	180	[405 885 405 675]	[1035 1515  405  675]
310.923	0.2	703203	703438	BlankScreen	VGS	48	2	False	lime	180	[405 885 405 675]	[1035 1515  405  675]
311.158	1.0	703438	704438	ELCue	VGS	48	2	False	lime	180	[405 885 405 675]	[1035 1515  405  675]
337.511	2.0	729791	731831	ShowFixation	ANTI	49	3	False	red	40	[1350 1830  405  675]	[ 90 570 405 675]
339.551	0.2	731831	732067	BlankScreen	ANTI	49	3	False	red	40	[1350 1830  405  675]	[ 90 570 405 675]
339.787	1.0	732067	733067	ELCue	ANTI	49	3	False	red	40	[1350 1830  405  675]	[ 90 570 405 675]
341.211	6.0	733491	739518	ShowFixation	ANTI	50	3	False	red	600	[ 90 570 405 675]	[1350 1830  405  675]
347.238	0.2	739518	739757	BlankScreen	ANTI	50	3	False	red	600	[ 90 570 405 675]	[1350 1830  405  675]
347.477	1.0	739757	740757	ELCue	ANTI	50	3	False	red	600	[ 90 570 405 675]	[1350 1830  405  675]
348.899	2.0	741179	743209	ShowFixation	VGS	51	3	False	lime	600	[1350 1830  405  675]	[ 90 570 405 675]
350.929	0.2	743209	743444	BlankScreen	VGS	51	3	False	lime	600	[1350 1830  405  675]	[ 90 570 405 675]
351.164	1.0	743444	744444	ELCue	VGS	51	3	False	lime	600	[1350 1830  405  675]	[ 90 570 405 675]
352.589	2.0	744869	746896	ShowFixation	ANTI	52	3	False	red	40	[1350 1830  405  675]	[ 90 570 405 675]
354.616	0.2	746896	747131	BlankScreen	ANTI	52	3	False	red	40	[1350 1830  405  675]	[ 90 570 405 675]
354.851	1.0	747131	748131	ELCue	ANTI	52	3	False	red	40	[1350 1830  405  675]	[ 90 570 405 675]
356.279	2.0	748559	750600	ShowFixation	VGS	53	3	False	lime	180	[405 885 405 675]	[1035 1515  405  675]
358.32	0.2	750600	750835	BlankScreen	VGS	53	3	False	lime	180	[405 885 405 675]	[1035 1515  405  675]
358.555	1.0	750835	751835	ELCue	VGS	53	3	False	lime	180	[405 885 405 675]	[1035 1515  405  675]
359.98	6.0	752260	758287	ShowFixation	ANTI	54	3	False	red	460	[405 885 405 675]	[1035 1515  405  675]
366.007	0.2	758287	758526	BlankScreen	ANTI	54	3	False	red	460	[405 885 405 675]	[1035 1515  405  675]
366.246	1.0	758526	759526	ELCue	ANTI	54	3	False	red	460	[405 885 405 675]	[1035 1515  405  675]
367.669	6.0	759949	765978	ShowFixation	ANTI	55	3	False	red	40	[1350 1830  405  675]	[ 90 570 405 675]
373.698	0.2	765978	766217	BlankScreen	ANTI	55	3	False	red	40	[1350 1830  405  675]	[ 90 570 405 675]
373.937	1.0	766217	767217	ELCue	ANTI	55	3	False	red	40	[1350 1830  405  675]	[ 90 570 405 675]
375.362	6.0	767642	773669	ShowFixation	VGS	56	3	False	lime	600	[1350 1830  405  675]	[ 90 570 405 675]
381.389	0.2	773669	773908	BlankScreen	VGS	56	3	False	lime	600	[1350 1830  405  675]	[ 90 570 405 675]
381.628	1.0	773908	774908	ELCue	VGS	56	3	False	lime	600	[1350 1830  405  675]	[ 90 570 405 675]
383.05	6.0	775330	781359	ShowFixation	ANTI	57	3	False	red	180	[1035 1515  405  675]	[405 885 405 675]
389.079	0.2	781359	781599	BlankScreen	ANTI	57	3	False	red	180	[1035 1515  405  675]	[405 885 405 675]
389.319	1.0	781599	782599	ELCue	ANTI	57	3	False	red	180	[1035 1515  405  675]	[405 885 405 675]
390.744	2.0	783024	785050	ShowFixation	VGS	58	3	False	lime	180	[405 885 405 675]	[1035 1515  405  675]
392.77	0.2	785050	785286	BlankScreen	VGS	58	3	False	lime	180	[405 885 405 675]	[1035 1515  405  675]
393.006	1.0	785286	786286	ELCue	VGS	58	3	False	lime	180	[405 885 405 675]	[1035 1515  405  675]
394.429	2.0	786709	788737	ShowFixation	ANTI	59	3	False	red	180	[1035 1515  405  675]	[405 885 405 675]
396.457	0.2	788737	788973	BlankScreen	ANTI	59	3	False	red	180	[1035 1515  405  675]	[405 885 405 675]
396.693	1.0	788973	789973	ELCue	ANTI	59	3	False	red	180	[1035 1515  405  675]	[405 885 405 675]
398.119	2.0	790399	792424	ShowFixation	VGS	60	3	False	lime	460	[1035 1515  405  675]	[405 885 405 675]
400.144	0.2	792424	792660	BlankScreen	VGS	60	3	False	lime	460	[1035 1515  405  675]	[405 885 405 675]
400.38	1.0	792660	793660	ELCue	VGS	60	3	False	lime	460	[1035 1515  405  675]	[405 885 405 675]
401.803	2.0	794083	796111	ShowFixation	VGS	61	3	False	lime	40	[ 90 570 405 675]	[1350 1830  405  675]
403.831	0.2	796111	796347	BlankScreen	VGS	61	3	False	lime	40	[ 90 570 405 675]	[1350 1830  405  675]
404.067	1.0	796347	797347	ELCue	VGS	61	3	False	lime	40	[ 90 570 405 675]	[1350 1830  405  675]
405.49	2.0	797770	799798	ShowFixation	ANTI	62	3	False	red	600	[ 90 570 405 675]	[1350 1830  405  675]
407.518	0.2	799798	800034	BlankScreen	ANTI	62	3	False	red	600	[ 90 570 405 675]	[1350 1830  405  675]
407.754	1.0	800034	801034	ELCue	ANTI	62	3	False	red	600	[ 90 570 405 675]	[1350 1830  405  675]
409.244	2.0	801524	803552	ShowFixation	ANTI	63	3	False	red	180	[1035 1515  405  675]	[405 885 405 675]
411.272	0.2	803552	803787	BlankScreen	ANTI	63	3	False	red	180	[1035 1515  405  675]	[405 885 405 675]
411.507	1.0	803787	804787	ELCue	ANTI	63	3	False	red	180	[1035 1515  405  675]	[405 885 405 675]
412.935	2.0	805215	807239	ShowFixation	VGS	64	3	False	lime	40	[ 90 570 405 675]	[1350 1830  405  675]
414.959	0.2	807239	807474	BlankScreen	VGS	64	3	False	lime	40	[ 90 570 405 675]	[1350 1830  405  675]
415.194	1.0	807474	808474	ELCue	VGS	64	3	False	lime	40	[ 90 570 405 675]	[1350 1830  405  675]
416.618	6.0	808898	814926	ShowFixation	VGS	65	3	False	lime	460	[1035 1515  405  675]	[405 885 405 675]
422.646	0.2	814926	815165	BlankScreen	VGS	65	3	False	lime	460	[1035 1515  405  675]	[405 885 405 675]
422.885	1.0	815165	816165	ELCue	VGS	65	3	False	lime	460	[1035 1515  405  675]	[405 885 405 675]
424.314	6.0	816594	822634	ShowFixation	VGS	66	3	False	lime	180	[405 885 405 675]	[1035 1515  405  675]
430.355	0.2	822635	822873	BlankScreen	VGS	66	3	False	lime	180	[405 885 405 675]	[1035 1515  405  675]
430.593	1.0	822873	823873	ELCue	VGS	66	3	False	lime	180	[405 885 405 675]	[1035 1515  405  675]
432.004	6.0	824284	830308	ShowFixation	VGS	67	3	False	lime	600	[1350 1830  405  675]	[ 90 570 405 675]
438.029	0.2	830309	830548	BlankScreen	VGS	67	3	False	lime	600	[1350 1830  405  675]	[ 90 570 405 675]
438.268	1.0	830548	831548	ELCue	VGS	67	3	False	lime	600	[1350 1830  405  675]	[ 90 570 405 675]
439.694	6.0	831974	838000	ShowFixation	VGS	68	3	False	lime	40	[ 90 570 405 675]	[1350 1830  405  675]
445.72	0.2	838000	838239	BlankScreen	VGS	68	3	False	lime	40	[ 90 570 405 675]	[1350 1830  405  675]
445.959	1.0	838239	839239	ELCue	VGS	68	3	False	lime	40	[ 90 570 405 675]	[1350 1830  405  675]
447.386	2.0	839666	841707	ShowFixation	ANTI	69	3	False	red	460	[405 885 405 675]	[1035 1515  405  675]
449.427	0.2	841707	841943	BlankScreen	ANTI	69	3	False	red	460	[405 885 405 675]	[1035 1515  405  675]
449.663	1.0	841943	842943	ELCue	ANTI	69	3	False	red	460	[405 885 405 675]	[1035 1515  405  675]
451.09	6.0	843370	849411	ShowFixation	ANTI	70	3	False	red	40	[1350 1830  405  675]	[ 90 570 405 675]
457.131	0.2	849411	849650	BlankScreen	ANTI	70	3	False	red	40	[1350 1830  405  675]	[ 90 570 405 675]
457.37	1.0	849650	850650	ELCue	ANTI	70	3	False	red	40	[1350 1830  405  675]	[ 90 570 405 675]
458.794	2.0	851074	853102	ShowFixation	VGS	71	3	False	lime	460	[1035 1515  405  675]	[405 885 405 675]
460.822	0.2	853102	853337	BlankScreen	VGS	71	3	False	lime	460	[1035 1515  405  675]	[405 885 405 675]
461.057	1.0	853337	854337	ELCue	VGS	71	3	False	lime	460	[1035 1515  405  675]	[405 885 405 675]
462.484	2.0	854764	856789	ShowFixation	ANTI	72	3	False	red	600	[ 90 570 405 675]	[1350 1830  405  675]
464.509	0.2	856789	857024	BlankScreen	ANTI	72	3	False	red	600	[ 90 570 405 675]	[1350 1830  405  675]
464.744	1.0	857024	858024	ELCue	ANTI	72	3	False	red	600	[ 90 570 405 675]	[1350 1830  405  675]
466.166	2.0	858446	860476	ShowFixation	ANTI	73	3	False	red	460	[405 885 405 675]	[1035 1515  405  675]
468.196	0.2	860476	860711	BlankScreen	ANTI	73	3	False	red	460	[405 885 405 675]	[1035 1515  405  675]
468.431	1.0	860711	861711	ELCue	ANTI	73	3	False	red	460	[405 885 405 675]	[1035 1515  405  675]
469.853	6.0	862133	868163	ShowFixation	ANTI	74	3	False	red	600	[ 90 570 405 675]	[1350 1830  405  675]
475.883	0.2	868163	868402	BlankScreen	ANTI	74	3	False	red	600	[ 90 570 405 675]	[1350 1830  405  675]
476.122	1.0	868402	869402	ELCue	ANTI	74	3	False	red	600	[ 90 570 405 675]	[1350 1830  405  675]
477.549	6.0	869829	875870	ShowFixation	ANTI	75	3	False	red	460	[405 885 405 675]	[1035 1515  405  675]
483.59	0.2	875870	876110	BlankScreen	ANTI	75	3	False	red	460	[405 885 405 675]	[1035 1515  405  675]
483.83	1.0	876110	877110	ELCue	ANTI	75	3	False	red	460	[405 885 405 675]	[1035 1515  405  675]
485.249	6.0	877529	883561	ShowFixation	VGS	76	3	False	lime	460	[1035 1515  405  675]	[405 885 405 675]
491.281	0.2	883561	883801	BlankScreen	VGS	76	3	False	lime	460	[1035 1515  405  675]	[405 885 405 675]
491.521	1.0	883801	884801	ELCue	VGS	76	3	False	lime	460	[1035 1515  405  675]	[405 885 405 675]
492.945	2.0	885225	887252	ShowFixation	VGS	77	3	False	lime	600	[1350 1830  405  675]	[ 90 570 405 675]
494.972	0.2	887252	887488	BlankScreen	VGS	77	3	False	lime	600	[1350 1830  405  675]	[ 90 570 405 675]
495.208	1.0	887488	888488	ELCue	VGS	77	3	False	lime	600	[1350 1830  405  675]	[ 90 570 405 675]
496.628	6.0	888908	894939	ShowFixation	VGS	78	3	False	lime	40	[ 90 570 405 675]	[1350 1830  405  675]
502.659	0.2	894939	895178	BlankScreen	VGS	78	3	False	lime	40	[ 90 570 405 675]	[1350 1830  405  675]
502.898	1.0	895178	896178	ELCue	VGS	78	3	False	lime	40	[ 90 570 405 675]	[1350 1830  405  675]
504.323	6.0	896603	902630	ShowFixation	ANTI	79	3	False	red	180	[1035 1515  405  675]	[405 885 405 675]
510.35	0.2	902630	902869	BlankScreen	ANTI	79	3	False	red	180	[1035 1515  405  675]	[405 885 405 675]
510.589	1.0	902869	903869	ELCue	ANTI	79	3	False	red	180	[1035 1515  405  675]	[405 885 405 675]
512.013	6.0	904293	910321	ShowFixation	VGS	80	3	False	lime	180	[405 885 405 675]	[1035 1515  405  675]
518.041	0.2	910321	910560	BlankScreen	VGS	80	3	False	lime	180	[405 885 405 675]	[1035 1515  405  675]
518.28	1.0	910560	911560	ELCue	VGS	80	3	False	lime	180	[405 885 405 675]	[1035 1515  405  675]
559.33	6.0	951610	957634	ShowFixation	VGS	81	4	False	lime	600	[1350 1830  405  675]	[ 90 570 405 675]
565.354	0.2	957634	957874	BlankScreen	VGS	81	4	False	lime	600	[1350 1830  405  675]	[ 90 570 405 675]
565.594	1.0	957874	958874	ELCue	VGS	81	4	False	lime	600	[1350 1830  405  675]	[ 90 570 405 675]
567.015	2.0	959295	961325	ShowFixation	VGS	82	4	False	lime	180	[405 885 405 675]	[1035 1515  405  675]
569.045	0.2	961325	961561	BlankScreen	VGS	82	4	False	lime	180	[405 885 405 675]	[1035 1515  405  675]
569.281	1.0	961561	962561	ELCue	VGS	82	4	False	lime	180	[405 885 405 675]	[1035 1515  405  675]
570.736	2.0	963016	965046	ShowFixation	ANTI	83	4	False	red	600	[ 90 570 405 675]	[1350 1830  405  675]
572.766	0.2	965046	965281	BlankScreen	ANTI	83	4	False	red	600	[ 90 570 405 675]	[1350 1830  405  675]
573.001	1.0	965281	966281	ELCue	ANTI	83	4	False	red	600	[ 90 570 405 675]	[1350 1830  405  675]
574.425	6.0	966705	972733	ShowFixation	ANTI	84	4	False	red	40	[1350 1830  405  675]	[ 90 570 405 675]
580.453	0.2	972733	972972	BlankScreen	ANTI	84	4	False	red	40	[1350 1830  405  675]	[ 90 570 405 675]
580.692	1.0	972972	973972	ELCue	ANTI	84	4	False	red	40	[1350 1830  405  675]	[ 90 570 405 675]
582.12	6.0	974400	980441	ShowFixation	ANTI	85	4	False	red	460	[405 885 405 675]	[1035 1515  405  675]
588.161	0.2	980441	980681	BlankScreen	ANTI	85	4	False	red	460	[405 885 405 675]	[1035 1515  405  675]
588.401	1.0	980681	981681	ELCue	ANTI	85	4	False	red	460	[405 885 405 675]	[1035 1515  405  675]
589.826	2.0	982106	984131	ShowFixation	VGS	86	4	False	lime	40	[ 90 570 405 675]	[1350 1830  405  675]
591.852	0.2	984132	984366	BlankScreen	VGS	86	4	False	lime	40	[ 90 570 405 675]	[1350 1830  405  675]
592.086	1.0	984366	985366	ELCue	VGS	86	4	False	lime	40	[ 90 570 405 675]	[1350 1830  405  675]
593.494	2.0	985774	987802	ShowFixation	VGS	87	4	False	lime	460	[1035 1515  405  675]	[405 885 405 675]
595.522	0.2	987802	988038	BlankScreen	VGS	87	4	False	lime	460	[1035 1515  405  675]	[405 885 405 675]
595.758	1.0	988038	989038	ELCue	VGS	87	4	False	lime	460	[1035 1515  405  675]	[405 885 405 675]
597.178	2.0	989458	991489	ShowFixation	ANTI	88	4	False	red	180	[1035 1515  405  675]	[405 885 405 675]
599.209	0.2	991489	991725	BlankScreen	ANTI	88	4	False	red	180	[1035 1515  405  675]	[405 885 405 675]
599.445	1.0	991725	992725	ELCue	ANTI	88	4	False	red	180	[1035 1515  405  675]	[405 885 405 675]
600.851	2.0	993131	995160	ShowFixation	ANTI	89	4	False	red	180	[1035 1515  405  675]	[405 885 405 675]
602.88	0.2	995160	995395	BlankScreen	ANTI	89	4	False	red	180	[1035 1515  405  675]	[405 885 405 675]
603.115	1.0	995395	996395	ELCue	ANTI	89	4	False	red	180	[1035 1515  405  675]	[405 885 405 675]
604.544	2.0	996824	998863	ShowFixation	ANTI	90	4	False	red	460	[405 885 405 675]	[1035 1515  405  675]
606.583	0.2	998863	999099	BlankScreen	ANTI	90	4	False	red	460	[405 885 405 675]	[1035 1515  405  675]
606.819	1.0	999099	1000099	ELCue	ANTI	90	4	False	red	460	[405 885 405 675]	[1035 1515  405  675]
608.243	6.0	1000523	1006550	ShowFixation	VGS	91	4	False	lime	600	[1350 1830  405  675]	[ 90 570 405 675]
614.27	0.2	1006550	1006790	BlankScreen	VGS	91	4	False	lime	600	[1350 1830  405  675]	[ 90 570 405 675]
614.51	1.0	1006790	1007790	ELCue	VGS	91	4	False	lime	600	[1350 1830  405  675]	[ 90 570 405 675]
615.93	2.0	1008210	1010241	ShowFixation	ANTI	92	4	False	red	460	[405 885 405 675]	[1035 1515  405  675]
617.961	0.2	1010241	1010477	BlankScreen	ANTI	92	4	False	red	460	[405 885 405 675]	[1035 1515  405  675]
618.197	1.0	1010477	1011477	ELCue	ANTI	92	4	False	red	460	[405 885 405 675]	[1035 1515  405  675]
619.621	2.0	1011901	1013928	ShowFixation	VGS	93	4	False	lime	600	[1350 1830  405  675]	[ 90 570 405 675]
621.648	0.2	1013928	1014164	BlankScreen	VGS	93	4	False	lime	600	[1350 1830  405  675]	[ 90 570 405 675]
621.884	1.0	1014164	1015164	ELCue	VGS	93	4	False	lime	600	[1350 1830  405  675]	[ 90 570 405 675]
623.309	6.0	1015589	1021615	ShowFixation	VGS	94	4	False	lime	180	[405 885 405 675]	[1035 1515  405  675]
629.335	0.2	1021615	1021854	BlankScreen	VGS	94	4	False	lime	180	[405 885 405 675]	[1035 1515  405  675]
629.574	1.0	1021854	1022854	ELCue	VGS	94	4	False	lime	180	[405 885 405 675]	[1035 1515  405  675]
631.003	2.0	1023283	1025323	ShowFixation	VGS	95	4	False	lime	600	[1350 1830  405  675]	[ 90 570 405 675]
633.043	0.2	1025323	1025558	BlankScreen	VGS	95	4	False	lime	600	[1350 1830  405  675]	[ 90 570 405 675]
633.278	1.0	1025558	1026558	ELCue	VGS	95	4	False	lime	600	[1350 1830  405  675]	[ 90 570 405 675]
634.703	6.0	1026983	1033010	ShowFixation	ANTI	96	4	False	red	460	[405 885 405 675]	[1035 1515  405  675]
640.73	0.2	1033010	1033249	BlankScreen	ANTI	96	4	False	red	460	[405 885 405 675]	[1035 1515  405  675]
640.969	1.0	1033249	1034249	ELCue	ANTI	96	4	False	red	460	[405 885 405 675]	[1035 1515  405  675]
642.392	2.0	1034672	1036701	ShowFixation	VGS	97	4	False	lime	40	[ 90 570 405 675]	[1350 1830  405  675]
644.421	0.2	1036701	1036936	BlankScreen	VGS	97	4	False	lime	40	[ 90 570 405 675]	[1350 1830  405  675]
644.656	1.0	1036936	1037936	ELCue	VGS	97	4	False	lime	40	[ 90 570 405 675]	[1350 1830  405  675]
646.082	2.0	1038362	1040388	ShowFixation	ANTI	98	4	False	red	600	[ 90 570 405 675]	[1350 1830  405  675]
648.108	0.2	1040388	1040623	BlankScreen	ANTI	98	4	False	red	600	[ 90 570 405 675]	[1350 1830  405  675]
648.343	1.0	1040623	1041623	ELCue	ANTI	98	4	False	red	600	[ 90 570 405 675]	[1350 1830  405  675]
649.764	2.0	1042044	1044075	ShowFixation	ANTI	99	4	False	red	40	[1350 1830  405  675]	[ 90 570 405 675]
651.795	0.2	1044075	1044310	BlankScreen	ANTI	99	4	False	red	40	[1350 1830  405  675]	[ 90 570 405 675]
652.03	1.0	1044310	1045310	ELCue	ANTI	99	4	False	red	40	[1350 1830  405  675]	[ 90 570 405 675]
653.449	6.0	1045729	1051762	ShowFixation	ANTI	100	4	False	red	180	[1035 1515  405  675]	[405 885 405 675]
659.482	0.2	1051762	1052001	BlankScreen	ANTI	100	4	False	red	180	[1035 1515  405  675]	[405 885 405 675]
659.721	1.0	1052001	1053001	ELCue	ANTI	100	4	False	red	180	[1035 1515  405  675]	[405 885 405 675]
661.146	2.0	1053426	1055453	ShowFixation	ANTI	101	4	False	red	40	[1350 1830  405  675]	[ 90 570 405 675]
663.173	0.2	1055453	1055688	BlankScreen	ANTI	101	4	False	red	40	[1350 1830  405  675]	[ 90 570 405 675]
663.408	1.0	1055688	1056688	ELCue	ANTI	101	4	False	red	40	[1350 1830  405  675]	[ 90 570 405 675]
664.829	2.0	1057109	1059139	ShowFixation	VGS	102	4	False	lime	180	[405 885 405 675]	[1035 1515  405  675]
666.859	0.2	1059139	1059375	BlankScreen	VGS	102	4	False	lime	180	[405 885 405 675]	[1035 1515  405  675]
667.095	1.0	1059375	1060375	ELCue	VGS	102	4	False	lime	180	[405 885 405 675]	[1035 1515  405  675]
668.487	6.0	1060767	1066793	ShowFixation	ANTI	103	4	False	red	40	[1350 1830  405  675]	[ 90 570 405 675]
674.513	0.2	1066793	1067032	BlankScreen	ANTI	103	4	False	red	40	[1350 1830  405  675]	[ 90 570 405 675]
674.752	1.0	1067032	1068032	ELCue	ANTI	103	4	False	red	40	[1350 1830  405  675]	[ 90 570 405 675]
676.175	6.0	1068455	1074484	ShowFixation	ANTI	104	4	False	red	600	[ 90 570 405 675]	[1350 1830  405  675]
682.204	0.2	1074484	1074723	BlankScreen	ANTI	104	4	False	red	600	[ 90 570 405 675]	[1350 1830  405  675]
682.443	1.0	1074723	1075723	ELCue	ANTI	104	4	False	red	600	[ 90 570 405 675]	[1350 1830  405  675]
683.863	6.0	1076143	1082175	ShowFixation	VGS	105	4	False	lime	40	[ 90 570 405 675]	[1350 1830  405  675]
689.895	0.2	1082175	1082414	BlankScreen	VGS	105	4	False	lime	40	[ 90 570 405 675]	[1350 1830  405  675]
690.134	1.0	1082414	1083414	ELCue	VGS	105	4	False	lime	40	[ 90 570 405 675]	[1350 1830  405  675]
691.559	6.0	1083839	1089866	ShowFixation	VGS	106	4	False	lime	40	[ 90 570 405 675]	[1350 1830  405  675]
697.586	0.2	1089866	1090105	BlankScreen	VGS	106	4	False	lime	40	[ 90 570 405 675]	[1350 1830  405  675]
697.825	1.0	1090105	1091105	ELCue	VGS	106	4	False	lime	40	[ 90 570 405 675]	[1350 1830  405  675]
699.243	6.0	1091523	1097557	ShowFixation	ANTI	107	4	False	red	180	[1035 1515  405  675]	[405 885 405 675]
705.277	0.2	1097557	1097796	BlankScreen	ANTI	107	4	False	red	180	[1035 1515  405  675]	[405 885 405 675]
705.516	1.0	1097796	1098796	ELCue	ANTI	107	4	False	red	180	[1035 1515  405  675]	[405 885 405 675]
706.938	6.0	1099218	1105248	ShowFixation	ANTI	108	4	False	red	600	[ 90 570 405 675]	[1350 1830  405  675]
712.968	0.2	1105248	1105487	BlankScreen	ANTI	108	4	False	red	600	[ 90 570 405 675]	[1350 1830  405  675]
713.207	1.0	1105487	1106487	ELCue	ANTI	108	4	False	red	600	[ 90 570 405 675]	[1350 1830  405  675]
714.633	6.0	1106913	1112939	ShowFixation	VGS	109	4	False	lime	460	[1035 1515  405  675]	[405 885 405 675]
720.659	0.2	1112939	1113178	BlankScreen	VGS	109	4	False	lime	460	[1035 1515  405  675]	[405 885 405 675]
720.898	1.0	1113178	1114178	ELCue	VGS	109	4	False	lime	460	[1035 1515  405  675]	[405 885 405 675]
722.327	2.0	1114607	1116646	ShowFixation	VGS	110	4	False	lime	460	[1035 1515  405  675]	[405 885 405 675]
724.366	0.2	1116646	1116882	BlankScreen	VGS	110	4	False	lime	460	[1035 1515  405  675]	[405 885 405 675]
724.602	1.0	1116882	1117882	ELCue	VGS	110	4	False	lime	460	[1035 1515  405  675]	[405 885 405 675]
726.03	6.0	1118310	1124350	ShowFixation	VGS	111	4	False	lime	460	[1035 1515  405  675]	[405 885 405 675]
732.07	0.2	1124350	1124589	BlankScreen	VGS	111	4	False	lime	460	[1035 1515  405  675]	[405 885 405 675]
732.309	1.0	1124589	1125589	ELCue	VGS	111	4	False	lime	460	[1035 1515  405  675]	[405 885 405 675]
733.736	6.0	1126016	1132041	ShowFixation	VGS	112	4	False	lime	180	[405 885 405 675]	[1035 1515  405  675]
739.762	0.2	1132042	1132281	BlankScreen	VGS	112	4	False	lime	180	[405 885 405 675]	[1035 1515  405  675]
740.001	1.0	1132281	1133281	ELCue	VGS	112	4	False	lime	180	[405 885 405 675]	[1035 1515  405  675]
