participant_id	condition	accuracy	reaction_time
sub-24248	incongruent	1	1.109
sub-24248	incongruent	1	0.689
sub-24248	incongruent	1	0.731
sub-24248	congruent	1	0.446
sub-24248	congruent	1	0.471
sub-24248	incongruent	1	0.830
sub-24248	incongruent	1	1.102
sub-24248	congruent	1	0.587
sub-24248	congruent	1	1.161
sub-24248	incongruent	1	1.329
sub-24248	congruent	1	0.871
sub-24248	incongruent	1	0.783
sub-24248	congruent	1	0.518
sub-24248	incongruent	1	1.461
sub-24248	incongruent	1	0.974
sub-24248	incongruent	1	0.927
sub-24248	incongruent	1	0.749
sub-24248	congruent	1	0.531
sub-24248	incongruent	1	1.224
sub-24248	congruent	1	0.505
sub-24248	congruent	1	0.977
sub-24248	congruent	1	0.792
sub-24248	incongruent	1	1.144
sub-24248	congruent	1	0.807
sub-24248	incongruent	0	0.000
sub-24248	congruent	1	0.660
sub-24248	incongruent	1	0.911
sub-24248	congruent	1	0.675
sub-24248	congruent	1	0.395
sub-24248	incongruent	0	0.540
sub-24248	congruent	1	0.458
sub-24248	incongruent	1	0.622
sub-24248	incongruent	0	0.427
sub-24248	congruent	1	0.503
sub-24248	incongruent	1	0.837
sub-24248	incongruent	1	0.809
sub-24248	incongruent	1	1.396
sub-24248	congruent	1	0.475
sub-24248	congruent	1	0.480
sub-24248	congruent	1	0.445
sub-24248	incongruent	1	0.528
sub-24248	incongruent	1	0.582
sub-24248	incongruent	1	0.733
sub-24248	congruent	1	0.627
sub-24248	congruent	1	0.541
sub-24248	congruent	1	0.555
sub-24248	incongruent	1	1.225
sub-24248	incongruent	1	0.635
sub-24248	congruent	1	0.618
sub-24248	incongruent	0	0.382
sub-24248	congruent	1	0.477
sub-24248	congruent	1	0.589
sub-24248	congruent	1	0.558
sub-24248	congruent	1	0.542
sub-24248	incongruent	1	0.818
sub-24248	congruent	1	0.462
sub-24248	congruent	1	0.463
sub-24248	incongruent	1	0.714
sub-24248	congruent	1	0.501
sub-24248	incongruent	1	0.833
sub-24248	congruent	1	0.551
sub-24248	incongruent	1	0.757
sub-24248	congruent	1	0.343
sub-24248	incongruent	1	0.948
sub-24248	incongruent	1	0.583
sub-24248	incongruent	1	0.624
sub-24248	incongruent	0	0.339
sub-24248	incongruent	1	0.787
sub-24248	incongruent	1	0.580
sub-24248	congruent	1	0.404
sub-24248	congruent	1	0.462
sub-24248	incongruent	1	0.727
sub-24248	congruent	1	0.477
sub-24248	incongruent	1	0.740
sub-24248	congruent	1	0.445
sub-24248	congruent	1	0.468
sub-24248	congruent	0	0.359
sub-24248	incongruent	1	0.842
sub-24248	congruent	1	0.449
sub-24248	incongruent	1	0.635
sub-24248	congruent	1	0.377
sub-24248	congruent	1	0.842
sub-24248	congruent	1	0.474
sub-24248	congruent	1	0.521
sub-24248	incongruent	1	0.711
sub-24248	congruent	1	0.614
sub-24248	congruent	1	0.474
sub-24248	congruent	1	0.442
sub-24248	incongruent	1	0.842
sub-24248	congruent	1	0.570
sub-24248	congruent	1	0.506
sub-24248	congruent	1	0.750
sub-24248	congruent	1	0.412
sub-24248	congruent	1	0.370
sub-24248	incongruent	1	0.637
sub-24248	incongruent	1	0.586
sub-24248	congruent	1	0.431
sub-24248	incongruent	1	0.833
sub-24248	incongruent	1	0.777
sub-24248	incongruent	1	1.173
sub-24248	incongruent	1	0.617
sub-24248	incongruent	1	0.567
sub-24248	congruent	1	0.490
sub-24248	congruent	1	0.437
sub-24248	congruent	1	0.588
sub-24248	incongruent	1	0.967
sub-24248	incongruent	1	0.634
sub-24248	incongruent	0	0.616
sub-24248	incongruent	1	0.700
sub-24248	incongruent	1	1.066
sub-24248	congruent	1	0.471
sub-24248	incongruent	1	0.661
sub-24248	incongruent	0	0.606
sub-24248	incongruent	1	0.548
sub-24248	congruent	1	0.505
sub-24248	congruent	1	0.588
sub-24248	congruent	1	0.596
sub-24248	incongruent	1	0.594
sub-24248	incongruent	1	0.610
sub-24248	congruent	1	0.514
sub-24248	congruent	1	0.507
sub-24248	congruent	1	0.817
sub-24248	congruent	1	0.417
sub-24248	incongruent	1	0.949
sub-24248	incongruent	1	0.591
sub-24248	incongruent	1	0.666
sub-24248	incongruent	1	0.923
sub-24248	incongruent	1	0.648
sub-24248	congruent	1	0.487
sub-24248	congruent	1	0.431
sub-24248	congruent	1	0.577
sub-24248	incongruent	1	0.750
sub-24248	congruent	1	0.388
sub-24248	incongruent	1	0.643
sub-24248	incongruent	1	0.758
sub-24248	congruent	1	0.646
sub-24248	incongruent	1	0.517
sub-24248	congruent	1	0.380
sub-24248	congruent	1	0.494
sub-24248	incongruent	1	1.050
sub-24248	congruent	1	0.477
sub-24248	congruent	1	0.534
sub-24248	incongruent	1	1.184
sub-24248	incongruent	0	1.188
sub-24248	congruent	1	0.573
sub-24248	incongruent	1	1.184
sub-24248	incongruent	1	1.368
sub-24248	incongruent	1	0.687
sub-24248	congruent	1	0.598
sub-24248	incongruent	1	0.705
sub-24248	congruent	0	0.860
sub-24248	congruent	0	0.000
sub-24248	incongruent	0	0.985
sub-24248	incongruent	0	0.968
sub-24248	congruent	1	1.609
sub-24248	congruent	0	0.000
sub-24248	incongruent	0	0.000
sub-24248	congruent	0	0.000
sub-24248	congruent	1	0.628
sub-24248	congruent	1	1.787
sub-24248	incongruent	0	0.912
sub-24248	congruent	0	0.804
sub-24248	incongruent	1	0.776
sub-24248	incongruent	1	1.003
sub-24248	congruent	0	0.000
sub-24248	incongruent	1	1.361
sub-24248	congruent	1	0.504
sub-24248	congruent	1	0.655
sub-24248	congruent	1	0.439
sub-24248	congruent	1	1.573
sub-24248	incongruent	1	1.377
sub-24248	congruent	1	0.521
sub-24248	incongruent	1	1.131
sub-24248	incongruent	1	0.454
sub-24248	congruent	1	0.967
sub-24248	incongruent	1	0.497
sub-24248	incongruent	1	0.528
sub-24248	congruent	1	0.429
sub-24248	incongruent	1	0.169
sub-24248	incongruent	1	0.599
sub-24248	congruent	1	0.945
sub-24248	incongruent	1	1.174
sub-24248	incongruent	1	0.424
sub-24248	incongruent	1	0.946
sub-24248	incongruent	1	0.549
sub-24248	congruent	1	0.424
sub-24248	congruent	1	0.515
sub-24248	incongruent	1	0.535
sub-24248	incongruent	1	0.503
sub-24248	congruent	1	0.498
sub-24248	congruent	1	0.386
sub-24248	incongruent	1	0.844
sub-24248	incongruent	1	0.504
sub-24248	incongruent	1	0.582
sub-24248	incongruent	1	0.486
sub-24248	incongruent	1	0.415
sub-24248	congruent	1	0.389
sub-24248	incongruent	1	0.664
sub-24248	congruent	1	0.473
sub-24248	incongruent	0	0.626
sub-24248	incongruent	1	1.155
sub-24248	incongruent	1	0.772
sub-24248	incongruent	1	0.693
sub-24248	incongruent	1	0.506
sub-24248	congruent	1	0.444
sub-24248	incongruent	1	0.455
sub-24248	congruent	1	0.512
sub-24248	congruent	1	0.451
sub-24248	congruent	1	0.490
sub-24248	incongruent	1	0.426
sub-24248	incongruent	1	0.451
sub-24248	congruent	1	0.418
sub-24248	incongruent	1	1.407
sub-24248	congruent	1	0.376
sub-24248	incongruent	1	0.423
sub-24248	incongruent	1	0.459
sub-24248	congruent	1	0.584
sub-24248	congruent	1	0.512
sub-24248	incongruent	1	0.761
sub-24248	congruent	1	0.542
sub-24248	congruent	1	0.461
sub-24248	incongruent	1	1.010
sub-24248	congruent	1	0.432
sub-24248	congruent	1	0.460
sub-24248	congruent	1	0.467
sub-24248	incongruent	1	0.577
sub-24248	congruent	1	0.459
sub-24248	incongruent	1	0.468
sub-24248	congruent	1	0.438
sub-24248	incongruent	1	0.465
sub-24248	congruent	1	0.479
sub-24248	congruent	1	0.494
sub-24248	congruent	1	0.507
sub-24248	congruent	1	0.528
sub-24248	congruent	1	0.553
sub-24248	congruent	1	0.574
sub-24248	incongruent	1	0.517
sub-24248	incongruent	1	1.325
sub-24248	congruent	1	0.460
sub-24248	congruent	1	0.430
