onset	duration	startTime	stopTime	eventIdentifier	trial_type	trial_number	block_number	is_practice	fixation_color	cue_side	aoi_correct	aoi_incorrect
0.144	2.0	1010397	1012427	ShowFixation	VGS	1	1	True	lime	40	[ 90 570 405 675]	[1350 1830  405  675]
2.174	0.2	1012427	1012662	BlankScreen	VGS	1	1	True	lime	40	[ 90 570 405 675]	[1350 1830  405  675]
2.409	1.0	1012662	1013703	ELCue	VGS	1	1	True	lime	40	[ 90 570 405 675]	[1350 1830  405  675]
3.854	2.0	1014107	1016748	ShowFixation	ANTI	2	1	True	red	180	[1035 1515  405  675]	[405 885 405 675]
6.495	0.2	1016748	1016983	BlankScreen	ANTI	2	1	True	red	180	[1035 1515  405  675]	[405 885 405 675]
6.73	1.0	1016983	1018023	ELCue	ANTI	2	1	True	red	180	[1035 1515  405  675]	[405 885 405 675]
8.176	6.0	1018429	1025052	ShowFixation	VGS	3	1	True	lime	180	[405 885 405 675]	[1035 1515  405  675]
14.799	0.2	1025052	1025291	BlankScreen	VGS	3	1	True	lime	180	[405 885 405 675]	[1035 1515  405  675]
15.038	1.0	1025291	1026332	ELCue	VGS	3	1	True	lime	180	[405 885 405 675]	[1035 1515  405  675]
16.483	2.0	1026736	1029377	ShowFixation	ANTI	4	1	True	red	600	[ 90 570 405 675]	[1350 1830  405  675]
19.124	0.2	1029377	1029612	BlankScreen	ANTI	4	1	True	red	600	[ 90 570 405 675]	[1350 1830  405  675]
19.359	1.0	1029612	1030649	ELCue	ANTI	4	1	True	red	600	[ 90 570 405 675]	[1350 1830  405  675]
20.861	6.0	1031114	1037698	ShowFixation	VGS	5	1	True	lime	600	[1350 1830  405  675]	[ 90 570 405 675]
27.445	0.2	1037698	1037937	BlankScreen	VGS	5	1	True	lime	600	[1350 1830  405  675]	[ 90 570 405 675]
27.684	1.0	1037937	1038978	ELCue	VGS	5	1	True	lime	600	[1350 1830  405  675]	[ 90 570 405 675]
29.128	2.0	1039381	1042023	ShowFixation	VGS	6	1	True	lime	460	[1035 1515  405  675]	[405 885 405 675]
31.77	0.2	1042023	1042258	BlankScreen	VGS	6	1	True	lime	460	[1035 1515  405  675]	[405 885 405 675]
32.005	1.0	1042258	1043295	ELCue	VGS	6	1	True	lime	460	[1035 1515  405  675]	[405 885 405 675]
33.453	6.0	1043706	1050344	ShowFixation	ANTI	7	1	True	red	600	[ 90 570 405 675]	[1350 1830  405  675]
40.091	0.2	1050344	1050583	BlankScreen	ANTI	7	1	True	red	600	[ 90 570 405 675]	[1350 1830  405  675]
40.33	1.0	1050583	1051621	ELCue	ANTI	7	1	True	red	600	[ 90 570 405 675]	[1350 1830  405  675]
41.772	2.0	1052025	1054668	ShowFixation	ANTI	8	1	True	red	460	[405 885 405 675]	[1035 1515  405  675]
44.415	0.2	1054668	1054904	BlankScreen	ANTI	8	1	True	red	460	[405 885 405 675]	[1035 1515  405  675]
44.651	1.0	1054904	1055942	ELCue	ANTI	8	1	True	red	460	[405 885 405 675]	[1035 1515  405  675]
46.092	6.0	1056345	1062989	ShowFixation	ANTI	9	1	True	red	180	[1035 1515  405  675]	[405 885 405 675]
52.736	0.2	1062989	1063229	BlankScreen	ANTI	9	1	True	red	180	[1035 1515  405  675]	[405 885 405 675]
52.976	1.0	1063229	1064267	ELCue	ANTI	9	1	True	red	180	[1035 1515  405  675]	[405 885 405 675]
54.412	2.0	1064665	1067314	ShowFixation	VGS	10	1	True	lime	180	[405 885 405 675]	[1035 1515  405  675]
57.061	0.2	1067314	1067550	BlankScreen	VGS	10	1	True	lime	180	[405 885 405 675]	[1035 1515  405  675]
57.297	1.0	1067550	1068590	ELCue	VGS	10	1	True	lime	180	[405 885 405 675]	[1035 1515  405  675]
58.742	6.0	1068995	1075619	ShowFixation	ANTI	11	1	True	red	460	[405 885 405 675]	[1035 1515  405  675]
65.366	0.2	1075619	1075858	BlankScreen	ANTI	11	1	True	red	460	[405 885 405 675]	[1035 1515  405  675]
65.605	1.0	1075858	1076896	ELCue	ANTI	11	1	True	red	460	[405 885 405 675]	[1035 1515  405  675]
67.049	2.0	1077302	1079943	ShowFixation	VGS	12	1	True	lime	600	[1350 1830  405  675]	[ 90 570 405 675]
69.69	0.2	1079943	1080179	BlankScreen	VGS	12	1	True	lime	600	[1350 1830  405  675]	[ 90 570 405 675]
69.926	1.0	1080179	1081220	ELCue	VGS	12	1	True	lime	600	[1350 1830  405  675]	[ 90 570 405 675]
71.375	2.0	1081628	1084264	ShowFixation	ANTI	13	1	True	red	40	[1350 1830  405  675]	[ 90 570 405 675]
74.011	0.2	1084264	1084500	BlankScreen	ANTI	13	1	True	red	40	[1350 1830  405  675]	[ 90 570 405 675]
74.247	1.0	1084500	1085538	ELCue	ANTI	13	1	True	red	40	[1350 1830  405  675]	[ 90 570 405 675]
75.674	6.0	1085927	1092585	ShowFixation	ANTI	14	1	True	red	40	[1350 1830  405  675]	[ 90 570 405 675]
82.333	0.2	1092586	1092825	BlankScreen	ANTI	14	1	True	red	40	[1350 1830  405  675]	[ 90 570 405 675]
82.572	1.0	1092825	1093863	ELCue	ANTI	14	1	True	red	40	[1350 1830  405  675]	[ 90 570 405 675]
84.014	6.0	1094267	1100911	ShowFixation	VGS	15	1	True	lime	40	[ 90 570 405 675]	[1350 1830  405  675]
90.658	0.2	1100911	1101149	BlankScreen	VGS	15	1	True	lime	40	[ 90 570 405 675]	[1350 1830  405  675]
90.897	1.0	1101150	1102190	ELCue	VGS	15	1	True	lime	40	[ 90 570 405 675]	[1350 1830  405  675]
92.342	6.0	1102595	1109236	ShowFixation	VGS	16	1	True	lime	460	[1035 1515  405  675]	[405 885 405 675]
98.983	0.2	1109236	1109475	BlankScreen	VGS	16	1	True	lime	460	[1035 1515  405  675]	[405 885 405 675]
99.222	1.0	1109475	1110515	ELCue	VGS	16	1	True	lime	460	[1035 1515  405  675]	[405 885 405 675]
129.101	6.0	1139354	1145388	ShowFixation	ANTI	17	2	False	red	40	[1350 1830  405  675]	[ 90 570 405 675]
135.135	0.2	1145388	1145628	BlankScreen	ANTI	17	2	False	red	40	[1350 1830  405  675]	[ 90 570 405 675]
135.375	1.0	1145628	1146628	ELCue	ANTI	17	2	False	red	40	[1350 1830  405  675]	[ 90 570 405 675]
136.748	6.0	1147001	1153029	ShowFixation	VGS	18	2	False	lime	40	[ 90 570 405 675]	[1350 1830  405  675]
142.776	0.2	1153029	1153269	BlankScreen	VGS	18	2	False	lime	40	[ 90 570 405 675]	[1350 1830  405  675]
143.016	1.0	1153269	1154269	ELCue	VGS	18	2	False	lime	40	[ 90 570 405 675]	[1350 1830  405  675]
144.422	6.0	1154675	1160703	ShowFixation	ANTI	19	2	False	red	40	[1350 1830  405  675]	[ 90 570 405 675]
150.45	0.2	1160703	1160943	BlankScreen	ANTI	19	2	False	red	40	[1350 1830  405  675]	[ 90 570 405 675]
150.69	1.0	1160943	1161943	ELCue	ANTI	19	2	False	red	40	[1350 1830  405  675]	[ 90 570 405 675]
152.101	2.0	1162354	1164394	ShowFixation	VGS	20	2	False	lime	180	[405 885 405 675]	[1035 1515  405  675]
154.141	0.2	1164394	1164630	BlankScreen	VGS	20	2	False	lime	180	[405 885 405 675]	[1035 1515  405  675]
154.377	1.0	1164630	1165630	ELCue	VGS	20	2	False	lime	180	[405 885 405 675]	[1035 1515  405  675]
155.786	6.0	1166039	1172065	ShowFixation	ANTI	21	2	False	red	180	[1035 1515  405  675]	[405 885 405 675]
161.812	0.2	1172065	1172304	BlankScreen	ANTI	21	2	False	red	180	[1035 1515  405  675]	[405 885 405 675]
162.051	1.0	1172304	1173304	ELCue	ANTI	21	2	False	red	180	[1035 1515  405  675]	[405 885 405 675]
163.455	2.0	1173708	1175739	ShowFixation	VGS	22	2	False	lime	600	[1350 1830  405  675]	[ 90 570 405 675]
165.486	0.2	1175739	1175974	BlankScreen	VGS	22	2	False	lime	600	[1350 1830  405  675]	[ 90 570 405 675]
165.721	1.0	1175974	1176974	ELCue	VGS	22	2	False	lime	600	[1350 1830  405  675]	[ 90 570 405 675]
167.134	2.0	1177387	1179426	ShowFixation	VGS	23	2	False	lime	600	[1350 1830  405  675]	[ 90 570 405 675]
169.174	0.2	1179427	1179661	BlankScreen	VGS	23	2	False	lime	600	[1350 1830  405  675]	[ 90 570 405 675]
169.408	1.0	1179661	1180661	ELCue	VGS	23	2	False	lime	600	[1350 1830  405  675]	[ 90 570 405 675]
170.815	2.0	1181068	1183096	ShowFixation	ANTI	24	2	False	red	600	[ 90 570 405 675]	[1350 1830  405  675]
172.843	0.2	1183096	1183332	BlankScreen	ANTI	24	2	False	red	600	[ 90 570 405 675]	[1350 1830  405  675]
173.079	1.0	1183332	1184332	ELCue	ANTI	24	2	False	red	600	[ 90 570 405 675]	[1350 1830  405  675]
174.484	6.0	1184737	1190766	ShowFixation	ANTI	25	2	False	red	460	[405 885 405 675]	[1035 1515  405  675]
180.513	0.2	1190766	1191006	BlankScreen	ANTI	25	2	False	red	460	[405 885 405 675]	[1035 1515  405  675]
180.753	1.0	1191006	1192006	ELCue	ANTI	25	2	False	red	460	[405 885 405 675]	[1035 1515  405  675]
182.155	2.0	1192408	1194441	ShowFixation	ANTI	26	2	False	red	180	[1035 1515  405  675]	[405 885 405 675]
184.188	0.2	1194441	1194676	BlankScreen	ANTI	26	2	False	red	180	[1035 1515  405  675]	[405 885 405 675]
184.423	1.0	1194676	1195676	ELCue	ANTI	26	2	False	red	180	[1035 1515  405  675]	[405 885 405 675]
185.831	6.0	1196084	1202111	ShowFixation	VGS	27	2	False	lime	40	[ 90 570 405 675]	[1350 1830  405  675]
191.858	0.2	1202111	1202350	BlankScreen	VGS	27	2	False	lime	40	[ 90 570 405 675]	[1350 1830  405  675]
192.097	1.0	1202350	1203350	ELCue	VGS	27	2	False	lime	40	[ 90 570 405 675]	[1350 1830  405  675]
193.501	6.0	1203754	1209785	ShowFixation	ANTI	28	2	False	red	600	[ 90 570 405 675]	[1350 1830  405  675]
199.532	0.2	1209785	1210025	BlankScreen	ANTI	28	2	False	red	600	[ 90 570 405 675]	[1350 1830  405  675]
199.772	1.0	1210025	1211025	ELCue	ANTI	28	2	False	red	600	[ 90 570 405 675]	[1350 1830  405  675]
201.181	6.0	1211434	1217459	ShowFixation	VGS	29	2	False	lime	600	[1350 1830  405  675]	[ 90 570 405 675]
207.207	0.2	1217460	1217699	BlankScreen	VGS	29	2	False	lime	600	[1350 1830  405  675]	[ 90 570 405 675]
207.446	1.0	1217699	1218699	ELCue	VGS	29	2	False	lime	600	[1350 1830  405  675]	[ 90 570 405 675]
208.856	6.0	1219109	1225135	ShowFixation	VGS	30	2	False	lime	180	[405 885 405 675]	[1035 1515  405  675]
214.882	0.2	1225135	1225374	BlankScreen	VGS	30	2	False	lime	180	[405 885 405 675]	[1035 1515  405  675]
215.121	1.0	1225374	1226374	ELCue	VGS	30	2	False	lime	180	[405 885 405 675]	[1035 1515  405  675]
216.526	2.0	1226779	1228809	ShowFixation	ANTI	31	2	False	red	460	[405 885 405 675]	[1035 1515  405  675]
218.556	0.2	1228809	1229044	BlankScreen	ANTI	31	2	False	red	460	[405 885 405 675]	[1035 1515  405  675]
218.791	1.0	1229044	1230044	ELCue	ANTI	31	2	False	red	460	[405 885 405 675]	[1035 1515  405  675]
220.207	6.0	1230460	1236496	ShowFixation	ANTI	32	2	False	red	460	[405 885 405 675]	[1035 1515  405  675]
226.243	0.2	1236496	1236735	BlankScreen	ANTI	32	2	False	red	460	[405 885 405 675]	[1035 1515  405  675]
226.482	1.0	1236735	1237735	ELCue	ANTI	32	2	False	red	460	[405 885 405 675]	[1035 1515  405  675]
227.886	2.0	1238139	1240170	ShowFixation	ANTI	33	2	False	red	40	[1350 1830  405  675]	[ 90 570 405 675]
229.917	0.2	1240170	1240406	BlankScreen	ANTI	33	2	False	red	40	[1350 1830  405  675]	[ 90 570 405 675]
230.153	1.0	1240406	1241406	ELCue	ANTI	33	2	False	red	40	[1350 1830  405  675]	[ 90 570 405 675]
231.562	6.0	1241815	1247840	ShowFixation	ANTI	34	2	False	red	600	[ 90 570 405 675]	[1350 1830  405  675]
237.587	0.2	1247840	1248080	BlankScreen	ANTI	34	2	False	red	600	[ 90 570 405 675]	[1350 1830  405  675]
237.827	1.0	1248080	1249080	ELCue	ANTI	34	2	False	red	600	[ 90 570 405 675]	[1350 1830  405  675]
239.233	6.0	1249486	1255515	ShowFixation	VGS	35	2	False	lime	460	[1035 1515  405  675]	[405 885 405 675]
245.262	0.2	1255515	1255754	BlankScreen	VGS	35	2	False	lime	460	[1035 1515  405  675]	[405 885 405 675]
245.501	1.0	1255754	1256754	ELCue	VGS	35	2	False	lime	460	[1035 1515  405  675]	[405 885 405 675]
246.908	2.0	1257161	1259189	ShowFixation	VGS	36	2	False	lime	40	[ 90 570 405 675]	[1350 1830  405  675]
248.936	0.2	1259189	1259424	BlankScreen	VGS	36	2	False	lime	40	[ 90 570 405 675]	[1350 1830  405  675]
249.171	1.0	1259424	1260424	ELCue	VGS	36	2	False	lime	40	[ 90 570 405 675]	[1350 1830  405  675]
250.558	2.0	1260811	1262843	ShowFixation	VGS	37	2	False	lime	40	[ 90 570 405 675]	[1350 1830  405  675]
252.59	0.2	1262843	1263078	BlankScreen	VGS	37	2	False	lime	40	[ 90 570 405 675]	[1350 1830  405  675]
252.825	1.0	1263078	1264078	ELCue	VGS	37	2	False	lime	40	[ 90 570 405 675]	[1350 1830  405  675]
254.228	6.0	1264481	1270513	ShowFixation	VGS	38	2	False	lime	460	[1035 1515  405  675]	[405 885 405 675]
260.26	0.2	1270513	1270752	BlankScreen	VGS	38	2	False	lime	460	[1035 1515  405  675]	[405 885 405 675]
260.499	1.0	1270752	1271752	ELCue	VGS	38	2	False	lime	460	[1035 1515  405  675]	[405 885 405 675]
261.888	2.0	1272141	1274170	ShowFixation	VGS	39	2	False	lime	180	[405 885 405 675]	[1035 1515  405  675]
263.917	0.2	1274170	1274406	BlankScreen	VGS	39	2	False	lime	180	[405 885 405 675]	[1035 1515  405  675]
264.153	1.0	1274406	1275406	ELCue	VGS	39	2	False	lime	180	[405 885 405 675]	[1035 1515  405  675]
265.557	6.0	1275810	1281841	ShowFixation	ANTI	40	2	False	red	180	[1035 1515  405  675]	[405 885 405 675]
271.588	0.2	1281841	1282080	BlankScreen	ANTI	40	2	False	red	180	[1035 1515  405  675]	[405 885 405 675]
271.827	1.0	1282080	1283080	ELCue	ANTI	40	2	False	red	180	[1035 1515  405  675]	[405 885 405 675]
273.237	6.0	1283490	1289515	ShowFixation	VGS	41	2	False	lime	180	[405 885 405 675]	[1035 1515  405  675]
279.262	0.2	1289515	1289754	BlankScreen	VGS	41	2	False	lime	180	[405 885 405 675]	[1035 1515  405  675]
279.501	1.0	1289754	1290754	ELCue	VGS	41	2	False	lime	180	[405 885 405 675]	[1035 1515  405  675]
280.912	2.0	1291165	1293206	ShowFixation	ANTI	42	2	False	red	40	[1350 1830  405  675]	[ 90 570 405 675]
282.953	0.2	1293206	1293441	BlankScreen	ANTI	42	2	False	red	40	[1350 1830  405  675]	[ 90 570 405 675]
283.188	1.0	1293441	1294441	ELCue	ANTI	42	2	False	red	40	[1350 1830  405  675]	[ 90 570 405 675]
284.596	2.0	1294849	1296876	ShowFixation	VGS	43	2	False	lime	460	[1035 1515  405  675]	[405 885 405 675]
286.623	0.2	1296876	1297111	BlankScreen	VGS	43	2	False	lime	460	[1035 1515  405  675]	[405 885 405 675]
286.858	1.0	1297111	1298111	ELCue	VGS	43	2	False	lime	460	[1035 1515  405  675]	[405 885 405 675]
288.267	6.0	1298520	1304546	ShowFixation	VGS	44	2	False	lime	600	[1350 1830  405  675]	[ 90 570 405 675]
294.293	0.2	1304546	1304786	BlankScreen	VGS	44	2	False	lime	600	[1350 1830  405  675]	[ 90 570 405 675]
294.533	1.0	1304786	1305786	ELCue	VGS	44	2	False	lime	600	[1350 1830  405  675]	[ 90 570 405 675]
295.938	2.0	1306191	1308221	ShowFixation	ANTI	45	2	False	red	180	[1035 1515  405  675]	[405 885 405 675]
297.968	0.2	1308221	1308456	BlankScreen	ANTI	45	2	False	red	180	[1035 1515  405  675]	[405 885 405 675]
298.203	1.0	1308456	1309456	ELCue	ANTI	45	2	False	red	180	[1035 1515  405  675]	[405 885 405 675]
299.614	2.0	1309867	1311908	ShowFixation	VGS	46	2	False	lime	460	[1035 1515  405  675]	[405 885 405 675]
301.655	0.2	1311908	1312143	BlankScreen	VGS	46	2	False	lime	460	[1035 1515  405  675]	[405 885 405 675]
301.89	1.0	1312143	1313143	ELCue	VGS	46	2	False	lime	460	[1035 1515  405  675]	[405 885 405 675]
303.292	2.0	1313545	1315578	ShowFixation	ANTI	47	2	False	red	600	[ 90 570 405 675]	[1350 1830  405  675]
305.325	0.2	1315578	1315813	BlankScreen	ANTI	47	2	False	red	600	[ 90 570 405 675]	[1350 1830  405  675]
305.56	1.0	1315813	1316813	ELCue	ANTI	47	2	False	red	600	[ 90 570 405 675]	[1350 1830  405  675]
306.965	2.0	1317218	1319248	ShowFixation	ANTI	48	2	False	red	460	[405 885 405 675]	[1035 1515  405  675]
308.995	0.2	1319248	1319484	BlankScreen	ANTI	48	2	False	red	460	[405 885 405 675]	[1035 1515  405  675]
309.231	1.0	1319484	1320484	ELCue	ANTI	48	2	False	red	460	[405 885 405 675]	[1035 1515  405  675]
471.638	2.0	1481891	1483929	ShowFixation	VGS	49	3	False	lime	180	[405 885 405 675]	[1035 1515  405  675]
473.676	0.2	1483929	1484165	BlankScreen	VGS	49	3	False	lime	180	[405 885 405 675]	[1035 1515  405  675]
473.912	1.0	1484165	1485165	ELCue	VGS	49	3	False	lime	180	[405 885 405 675]	[1035 1515  405  675]
475.415	6.0	1485668	1491700	ShowFixation	VGS	50	3	False	lime	600	[1350 1830  405  675]	[ 90 570 405 675]
481.447	0.2	1491700	1491939	BlankScreen	VGS	50	3	False	lime	600	[1350 1830  405  675]	[ 90 570 405 675]
481.686	1.0	1491939	1492939	ELCue	VGS	50	3	False	lime	600	[1350 1830  405  675]	[ 90 570 405 675]
483.093	6.0	1493346	1499374	ShowFixation	VGS	51	3	False	lime	180	[405 885 405 675]	[1035 1515  405  675]
489.121	0.2	1499374	1499613	BlankScreen	VGS	51	3	False	lime	180	[405 885 405 675]	[1035 1515  405  675]
489.36	1.0	1499613	1500613	ELCue	VGS	51	3	False	lime	180	[405 885 405 675]	[1035 1515  405  675]
490.769	6.0	1501022	1507048	ShowFixation	ANTI	52	3	False	red	460	[405 885 405 675]	[1035 1515  405  675]
496.795	0.2	1507048	1507287	BlankScreen	ANTI	52	3	False	red	460	[405 885 405 675]	[1035 1515  405  675]
497.034	1.0	1507287	1508287	ELCue	ANTI	52	3	False	red	460	[405 885 405 675]	[1035 1515  405  675]
498.439	2.0	1508692	1510722	ShowFixation	VGS	53	3	False	lime	40	[ 90 570 405 675]	[1350 1830  405  675]
500.469	0.2	1510722	1510958	BlankScreen	VGS	53	3	False	lime	40	[ 90 570 405 675]	[1350 1830  405  675]
500.705	1.0	1510958	1511958	ELCue	VGS	53	3	False	lime	40	[ 90 570 405 675]	[1350 1830  405  675]
502.116	2.0	1512369	1514409	ShowFixation	ANTI	54	3	False	red	600	[ 90 570 405 675]	[1350 1830  405  675]
504.156	0.2	1514409	1514645	BlankScreen	ANTI	54	3	False	red	600	[ 90 570 405 675]	[1350 1830  405  675]
504.392	1.0	1514645	1515645	ELCue	ANTI	54	3	False	red	600	[ 90 570 405 675]	[1350 1830  405  675]
505.81	6.0	1516063	1522096	ShowFixation	ANTI	55	3	False	red	180	[1035 1515  405  675]	[405 885 405 675]
511.843	0.2	1522096	1522336	BlankScreen	ANTI	55	3	False	red	180	[1035 1515  405  675]	[405 885 405 675]
512.083	1.0	1522336	1523336	ELCue	ANTI	55	3	False	red	180	[1035 1515  405  675]	[405 885 405 675]
513.488	2.0	1523741	1525771	ShowFixation	VGS	56	3	False	lime	180	[405 885 405 675]	[1035 1515  405  675]
515.518	0.2	1525771	1526006	BlankScreen	VGS	56	3	False	lime	180	[405 885 405 675]	[1035 1515  405  675]
515.753	1.0	1526006	1527006	ELCue	VGS	56	3	False	lime	180	[405 885 405 675]	[1035 1515  405  675]
517.16	2.0	1527413	1529441	ShowFixation	ANTI	57	3	False	red	180	[1035 1515  405  675]	[405 885 405 675]
519.188	0.2	1529441	1529676	BlankScreen	ANTI	57	3	False	red	180	[1035 1515  405  675]	[405 885 405 675]
519.423	1.0	1529676	1530676	ELCue	ANTI	57	3	False	red	180	[1035 1515  405  675]	[405 885 405 675]
520.829	2.0	1531082	1533111	ShowFixation	ANTI	58	3	False	red	460	[405 885 405 675]	[1035 1515  405  675]
522.858	0.2	1533111	1533346	BlankScreen	ANTI	58	3	False	red	460	[405 885 405 675]	[1035 1515  405  675]
523.093	1.0	1533346	1534346	ELCue	ANTI	58	3	False	red	460	[405 885 405 675]	[1035 1515  405  675]
524.502	6.0	1534755	1540781	ShowFixation	VGS	59	3	False	lime	460	[1035 1515  405  675]	[405 885 405 675]
530.528	0.2	1540781	1541021	BlankScreen	VGS	59	3	False	lime	460	[1035 1515  405  675]	[405 885 405 675]
530.768	1.0	1541021	1542021	ELCue	VGS	59	3	False	lime	460	[1035 1515  405  675]	[405 885 405 675]
532.173	2.0	1542426	1544456	ShowFixation	ANTI	60	3	False	red	40	[1350 1830  405  675]	[ 90 570 405 675]
534.203	0.2	1544456	1544691	BlankScreen	ANTI	60	3	False	red	40	[1350 1830  405  675]	[ 90 570 405 675]
534.438	1.0	1544691	1545691	ELCue	ANTI	60	3	False	red	40	[1350 1830  405  675]	[ 90 570 405 675]
535.832	6.0	1546085	1552126	ShowFixation	VGS	61	3	False	lime	460	[1035 1515  405  675]	[405 885 405 675]
541.873	0.2	1552126	1552365	BlankScreen	VGS	61	3	False	lime	460	[1035 1515  405  675]	[405 885 405 675]
542.112	1.0	1552365	1553365	ELCue	VGS	61	3	False	lime	460	[1035 1515  405  675]	[405 885 405 675]
543.52	6.0	1553773	1559800	ShowFixation	ANTI	62	3	False	red	600	[ 90 570 405 675]	[1350 1830  405  675]
549.547	0.2	1559800	1560040	BlankScreen	ANTI	62	3	False	red	600	[ 90 570 405 675]	[1350 1830  405  675]
549.787	1.0	1560040	1561040	ELCue	ANTI	62	3	False	red	600	[ 90 570 405 675]	[1350 1830  405  675]
551.193	2.0	1561446	1563474	ShowFixation	VGS	63	3	False	lime	600	[1350 1830  405  675]	[ 90 570 405 675]
553.221	0.2	1563474	1563710	BlankScreen	VGS	63	3	False	lime	600	[1350 1830  405  675]	[ 90 570 405 675]
553.457	1.0	1563710	1564710	ELCue	VGS	63	3	False	lime	600	[1350 1830  405  675]	[ 90 570 405 675]
554.829	2.0	1565082	1567111	ShowFixation	VGS	64	3	False	lime	460	[1035 1515  405  675]	[405 885 405 675]
556.858	0.2	1567111	1567347	BlankScreen	VGS	64	3	False	lime	460	[1035 1515  405  675]	[405 885 405 675]
557.094	1.0	1567347	1568347	ELCue	VGS	64	3	False	lime	460	[1035 1515  405  675]	[405 885 405 675]
558.495	2.0	1568748	1570782	ShowFixation	VGS	65	3	False	lime	40	[ 90 570 405 675]	[1350 1830  405  675]
560.529	0.2	1570782	1571017	BlankScreen	VGS	65	3	False	lime	40	[ 90 570 405 675]	[1350 1830  405  675]
560.764	1.0	1571017	1572017	ELCue	VGS	65	3	False	lime	40	[ 90 570 405 675]	[1350 1830  405  675]
562.167	2.0	1572420	1574452	ShowFixation	ANTI	66	3	False	red	180	[1035 1515  405  675]	[405 885 405 675]
564.199	0.2	1574452	1574687	BlankScreen	ANTI	66	3	False	red	180	[1035 1515  405  675]	[405 885 405 675]
564.434	1.0	1574687	1575687	ELCue	ANTI	66	3	False	red	180	[1035 1515  405  675]	[405 885 405 675]
565.846	6.0	1576099	1582139	ShowFixation	VGS	67	3	False	lime	180	[405 885 405 675]	[1035 1515  405  675]
571.886	0.2	1582139	1582378	BlankScreen	VGS	67	3	False	lime	180	[405 885 405 675]	[1035 1515  405  675]
572.125	1.0	1582378	1583378	ELCue	VGS	67	3	False	lime	180	[405 885 405 675]	[1035 1515  405  675]
573.535	2.0	1583788	1585813	ShowFixation	ANTI	68	3	False	red	40	[1350 1830  405  675]	[ 90 570 405 675]
575.56	0.2	1585813	1586048	BlankScreen	ANTI	68	3	False	red	40	[1350 1830  405  675]	[ 90 570 405 675]
575.795	1.0	1586048	1587048	ELCue	ANTI	68	3	False	red	40	[1350 1830  405  675]	[ 90 570 405 675]
577.207	6.0	1587460	1593500	ShowFixation	ANTI	69	3	False	red	40	[1350 1830  405  675]	[ 90 570 405 675]
583.248	0.2	1593501	1593740	BlankScreen	ANTI	69	3	False	red	40	[1350 1830  405  675]	[ 90 570 405 675]
583.487	1.0	1593740	1594740	ELCue	ANTI	69	3	False	red	40	[1350 1830  405  675]	[ 90 570 405 675]
584.9	6.0	1595153	1601192	ShowFixation	ANTI	70	3	False	red	600	[ 90 570 405 675]	[1350 1830  405  675]
590.939	0.2	1601192	1601431	BlankScreen	ANTI	70	3	False	red	600	[ 90 570 405 675]	[1350 1830  405  675]
591.178	1.0	1601431	1602431	ELCue	ANTI	70	3	False	red	600	[ 90 570 405 675]	[1350 1830  405  675]
592.587	6.0	1602840	1608866	ShowFixation	VGS	71	3	False	lime	40	[ 90 570 405 675]	[1350 1830  405  675]
598.613	0.2	1608866	1609106	BlankScreen	VGS	71	3	False	lime	40	[ 90 570 405 675]	[1350 1830  405  675]
598.853	1.0	1609106	1610106	ELCue	VGS	71	3	False	lime	40	[ 90 570 405 675]	[1350 1830  405  675]
600.266	6.0	1610519	1616557	ShowFixation	ANTI	72	3	False	red	460	[405 885 405 675]	[1035 1515  405  675]
606.304	0.2	1616557	1616796	BlankScreen	ANTI	72	3	False	red	460	[405 885 405 675]	[1035 1515  405  675]
606.543	1.0	1616796	1617796	ELCue	ANTI	72	3	False	red	460	[405 885 405 675]	[1035 1515  405  675]
607.949	2.0	1618202	1620231	ShowFixation	VGS	73	3	False	lime	460	[1035 1515  405  675]	[405 885 405 675]
609.978	0.2	1620231	1620467	BlankScreen	VGS	73	3	False	lime	460	[1035 1515  405  675]	[405 885 405 675]
610.214	1.0	1620467	1621467	ELCue	VGS	73	3	False	lime	460	[1035 1515  405  675]	[405 885 405 675]
611.621	6.0	1621874	1627902	ShowFixation	VGS	74	3	False	lime	600	[1350 1830  405  675]	[ 90 570 405 675]
617.649	0.2	1627902	1628141	BlankScreen	VGS	74	3	False	lime	600	[1350 1830  405  675]	[ 90 570 405 675]
617.888	1.0	1628141	1629141	ELCue	VGS	74	3	False	lime	600	[1350 1830  405  675]	[ 90 570 405 675]
619.298	6.0	1629551	1635576	ShowFixation	ANTI	75	3	False	red	180	[1035 1515  405  675]	[405 885 405 675]
625.323	0.2	1635576	1635815	BlankScreen	ANTI	75	3	False	red	180	[1035 1515  405  675]	[405 885 405 675]
625.562	1.0	1635815	1636815	ELCue	ANTI	75	3	False	red	180	[1035 1515  405  675]	[405 885 405 675]
626.966	6.0	1637219	1643250	ShowFixation	VGS	76	3	False	lime	40	[ 90 570 405 675]	[1350 1830  405  675]
632.997	0.2	1643250	1643489	BlankScreen	VGS	76	3	False	lime	40	[ 90 570 405 675]	[1350 1830  405  675]
633.236	1.0	1643489	1644489	ELCue	VGS	76	3	False	lime	40	[ 90 570 405 675]	[1350 1830  405  675]
634.644	6.0	1644897	1650924	ShowFixation	ANTI	77	3	False	red	40	[1350 1830  405  675]	[ 90 570 405 675]
640.671	0.2	1650924	1651164	BlankScreen	ANTI	77	3	False	red	40	[1350 1830  405  675]	[ 90 570 405 675]
640.911	1.0	1651164	1652164	ELCue	ANTI	77	3	False	red	40	[1350 1830  405  675]	[ 90 570 405 675]
642.319	2.0	1652572	1654599	ShowFixation	ANTI	78	3	False	red	460	[405 885 405 675]	[1035 1515  405  675]
644.346	0.2	1654599	1654834	BlankScreen	ANTI	78	3	False	red	460	[405 885 405 675]	[1035 1515  405  675]
644.581	1.0	1654834	1655834	ELCue	ANTI	78	3	False	red	460	[405 885 405 675]	[1035 1515  405  675]
645.972	2.0	1656225	1658252	ShowFixation	ANTI	79	3	False	red	600	[ 90 570 405 675]	[1350 1830  405  675]
647.999	0.2	1658252	1658488	BlankScreen	ANTI	79	3	False	red	600	[ 90 570 405 675]	[1350 1830  405  675]
648.235	1.0	1658488	1659488	ELCue	ANTI	79	3	False	red	600	[ 90 570 405 675]	[1350 1830  405  675]
649.64	2.0	1659893	1661923	ShowFixation	VGS	80	3	False	lime	600	[1350 1830  405  675]	[ 90 570 405 675]
651.67	0.2	1661923	1662158	BlankScreen	VGS	80	3	False	lime	600	[1350 1830  405  675]	[ 90 570 405 675]
651.905	1.0	1662158	1663158	ELCue	VGS	80	3	False	lime	600	[1350 1830  405  675]	[ 90 570 405 675]
971.849	2.0	1982102	1984143	ShowFixation	VGS	81	4	False	lime	460	[1035 1515  405  675]	[405 885 405 675]
973.89	0.2	1984143	1984379	BlankScreen	VGS	81	4	False	lime	460	[1035 1515  405  675]	[405 885 405 675]
974.126	1.0	1984379	1985379	ELCue	VGS	81	4	False	lime	460	[1035 1515  405  675]	[405 885 405 675]
975.53	2.0	1985783	1987814	ShowFixation	VGS	82	4	False	lime	180	[405 885 405 675]	[1035 1515  405  675]
977.561	0.2	1987814	1988049	BlankScreen	VGS	82	4	False	lime	180	[405 885 405 675]	[1035 1515  405  675]
977.796	1.0	1988049	1989049	ELCue	VGS	82	4	False	lime	180	[405 885 405 675]	[1035 1515  405  675]
979.209	6.0	1989462	1995501	ShowFixation	VGS	83	4	False	lime	40	[ 90 570 405 675]	[1350 1830  405  675]
985.248	0.2	1995501	1995740	BlankScreen	VGS	83	4	False	lime	40	[ 90 570 405 675]	[1350 1830  405  675]
985.487	1.0	1995740	1996740	ELCue	VGS	83	4	False	lime	40	[ 90 570 405 675]	[1350 1830  405  675]
986.895	6.0	1997148	2003175	ShowFixation	ANTI	84	4	False	red	600	[ 90 570 405 675]	[1350 1830  405  675]
992.922	0.2	2003175	2003414	BlankScreen	ANTI	84	4	False	red	600	[ 90 570 405 675]	[1350 1830  405  675]
993.161	1.0	2003414	2004414	ELCue	ANTI	84	4	False	red	600	[ 90 570 405 675]	[1350 1830  405  675]
994.57	6.0	2004823	2010849	ShowFixation	ANTI	85	4	False	red	180	[1035 1515  405  675]	[405 885 405 675]
1000.596	0.2	2010849	2011088	BlankScreen	ANTI	85	4	False	red	180	[1035 1515  405  675]	[405 885 405 675]
1000.835	1.0	2011088	2012088	ELCue	ANTI	85	4	False	red	180	[1035 1515  405  675]	[405 885 405 675]
1002.244	6.0	2012497	2018523	ShowFixation	VGS	86	4	False	lime	460	[1035 1515  405  675]	[405 885 405 675]
1008.27	0.2	2018523	2018763	BlankScreen	VGS	86	4	False	lime	460	[1035 1515  405  675]	[405 885 405 675]
1008.51	1.0	2018763	2019763	ELCue	VGS	86	4	False	lime	460	[1035 1515  405  675]	[405 885 405 675]
1009.912	2.0	2020165	2022198	ShowFixation	ANTI	87	4	False	red	600	[ 90 570 405 675]	[1350 1830  405  675]
1011.945	0.2	2022198	2022433	BlankScreen	ANTI	87	4	False	red	600	[ 90 570 405 675]	[1350 1830  405  675]
1012.18	1.0	2022433	2023433	ELCue	ANTI	87	4	False	red	600	[ 90 570 405 675]	[1350 1830  405  675]
1013.587	6.0	2023840	2029868	ShowFixation	VGS	88	4	False	lime	600	[1350 1830  405  675]	[ 90 570 405 675]
1019.615	0.2	2029868	2030107	BlankScreen	VGS	88	4	False	lime	600	[1350 1830  405  675]	[ 90 570 405 675]
1019.854	1.0	2030107	2031107	ELCue	VGS	88	4	False	lime	600	[1350 1830  405  675]	[ 90 570 405 675]
1021.261	2.0	2031514	2033542	ShowFixation	ANTI	89	4	False	red	180	[1035 1515  405  675]	[405 885 405 675]
1023.289	0.2	2033542	2033777	BlankScreen	ANTI	89	4	False	red	180	[1035 1515  405  675]	[405 885 405 675]
1023.524	1.0	2033777	2034777	ELCue	ANTI	89	4	False	red	180	[1035 1515  405  675]	[405 885 405 675]
1024.931	6.0	2035184	2041212	ShowFixation	VGS	90	4	False	lime	600	[1350 1830  405  675]	[ 90 570 405 675]
1030.959	0.2	2041212	2041452	BlankScreen	VGS	90	4	False	lime	600	[1350 1830  405  675]	[ 90 570 405 675]
1031.199	1.0	2041452	2042452	ELCue	VGS	90	4	False	lime	600	[1350 1830  405  675]	[ 90 570 405 675]
1032.609	2.0	2042862	2044887	ShowFixation	VGS	91	4	False	lime	40	[ 90 570 405 675]	[1350 1830  405  675]
1034.634	0.2	2044887	2045122	BlankScreen	VGS	91	4	False	lime	40	[ 90 570 405 675]	[1350 1830  405  675]
1034.869	1.0	2045122	2046122	ELCue	VGS	91	4	False	lime	40	[ 90 570 405 675]	[1350 1830  405  675]
1036.282	6.0	2046535	2052574	ShowFixation	VGS	92	4	False	lime	460	[1035 1515  405  675]	[405 885 405 675]
1042.321	0.2	2052574	2052813	BlankScreen	VGS	92	4	False	lime	460	[1035 1515  405  675]	[405 885 405 675]
1042.56	1.0	2052813	2053813	ELCue	VGS	92	4	False	lime	460	[1035 1515  405  675]	[405 885 405 675]
1043.967	2.0	2054220	2056248	ShowFixation	VGS	93	4	False	lime	460	[1035 1515  405  675]	[405 885 405 675]
1045.995	0.2	2056248	2056483	BlankScreen	VGS	93	4	False	lime	460	[1035 1515  405  675]	[405 885 405 675]
1046.23	1.0	2056483	2057483	ELCue	VGS	93	4	False	lime	460	[1035 1515  405  675]	[405 885 405 675]
1047.637	6.0	2057890	2063918	ShowFixation	VGS	94	4	False	lime	40	[ 90 570 405 675]	[1350 1830  405  675]
1053.665	0.2	2063918	2064157	BlankScreen	VGS	94	4	False	lime	40	[ 90 570 405 675]	[1350 1830  405  675]
1053.904	1.0	2064157	2065157	ELCue	VGS	94	4	False	lime	40	[ 90 570 405 675]	[1350 1830  405  675]
1055.306	6.0	2065559	2071592	ShowFixation	ANTI	95	4	False	red	460	[405 885 405 675]	[1035 1515  405  675]
1061.339	0.2	2071592	2071832	BlankScreen	ANTI	95	4	False	red	460	[405 885 405 675]	[1035 1515  405  675]
1061.579	1.0	2071832	2072832	ELCue	ANTI	95	4	False	red	460	[405 885 405 675]	[1035 1515  405  675]
1062.985	2.0	2073238	2075267	ShowFixation	ANTI	96	4	False	red	180	[1035 1515  405  675]	[405 885 405 675]
1065.014	0.2	2075267	2075502	BlankScreen	ANTI	96	4	False	red	180	[1035 1515  405  675]	[405 885 405 675]
1065.249	1.0	2075502	2076502	ELCue	ANTI	96	4	False	red	180	[1035 1515  405  675]	[405 885 405 675]
1066.63	2.0	2076883	2078920	ShowFixation	ANTI	97	4	False	red	460	[405 885 405 675]	[1035 1515  405  675]
1068.667	0.2	2078920	2079156	BlankScreen	ANTI	97	4	False	red	460	[405 885 405 675]	[1035 1515  405  675]
1068.903	1.0	2079156	2080156	ELCue	ANTI	97	4	False	red	460	[405 885 405 675]	[1035 1515  405  675]
1070.311	6.0	2080564	2086591	ShowFixation	ANTI	98	4	False	red	40	[1350 1830  405  675]	[ 90 570 405 675]
1076.339	0.2	2086592	2086830	BlankScreen	ANTI	98	4	False	red	40	[1350 1830  405  675]	[ 90 570 405 675]
1076.578	1.0	2086831	2087831	ELCue	ANTI	98	4	False	red	40	[1350 1830  405  675]	[ 90 570 405 675]
1077.984	6.0	2088237	2094266	ShowFixation	ANTI	99	4	False	red	600	[ 90 570 405 675]	[1350 1830  405  675]
1084.013	0.2	2094266	2094505	BlankScreen	ANTI	99	4	False	red	600	[ 90 570 405 675]	[1350 1830  405  675]
1084.252	1.0	2094505	2095505	ELCue	ANTI	99	4	False	red	600	[ 90 570 405 675]	[1350 1830  405  675]
1085.66	6.0	2095913	2101940	ShowFixation	ANTI	100	4	False	red	40	[1350 1830  405  675]	[ 90 570 405 675]
1091.687	0.2	2101940	2102179	BlankScreen	ANTI	100	4	False	red	40	[1350 1830  405  675]	[ 90 570 405 675]
1091.926	1.0	2102179	2103179	ELCue	ANTI	100	4	False	red	40	[1350 1830  405  675]	[ 90 570 405 675]
1093.335	2.0	2103588	2105614	ShowFixation	ANTI	101	4	False	red	460	[405 885 405 675]	[1035 1515  405  675]
1095.361	0.2	2105614	2105850	BlankScreen	ANTI	101	4	False	red	460	[405 885 405 675]	[1035 1515  405  675]
1095.597	1.0	2105850	2106850	ELCue	ANTI	101	4	False	red	460	[405 885 405 675]	[1035 1515  405  675]
1096.991	2.0	2107244	2109285	ShowFixation	VGS	102	4	False	lime	180	[405 885 405 675]	[1035 1515  405  675]
1099.032	0.2	2109285	2109520	BlankScreen	VGS	102	4	False	lime	180	[405 885 405 675]	[1035 1515  405  675]
1099.267	1.0	2109520	2110520	ELCue	VGS	102	4	False	lime	180	[405 885 405 675]	[1035 1515  405  675]
1100.675	2.0	2110928	2112955	ShowFixation	ANTI	103	4	False	red	40	[1350 1830  405  675]	[ 90 570 405 675]
1102.702	0.2	2112955	2113190	BlankScreen	ANTI	103	4	False	red	40	[1350 1830  405  675]	[ 90 570 405 675]
1102.937	1.0	2113190	2114190	ELCue	ANTI	103	4	False	red	40	[1350 1830  405  675]	[ 90 570 405 675]
1104.329	2.0	2114582	2116608	ShowFixation	ANTI	104	4	False	red	600	[ 90 570 405 675]	[1350 1830  405  675]
1106.355	0.2	2116608	2116844	BlankScreen	ANTI	104	4	False	red	600	[ 90 570 405 675]	[1350 1830  405  675]
1106.591	1.0	2116844	2117844	ELCue	ANTI	104	4	False	red	600	[ 90 570 405 675]	[1350 1830  405  675]
1108.003	2.0	2118256	2120295	ShowFixation	VGS	105	4	False	lime	40	[ 90 570 405 675]	[1350 1830  405  675]
1110.042	0.2	2120295	2120531	BlankScreen	VGS	105	4	False	lime	40	[ 90 570 405 675]	[1350 1830  405  675]
1110.278	1.0	2120531	2121531	ELCue	VGS	105	4	False	lime	40	[ 90 570 405 675]	[1350 1830  405  675]
1111.685	6.0	2121938	2127966	ShowFixation	ANTI	106	4	False	red	180	[1035 1515  405  675]	[405 885 405 675]
1117.713	0.2	2127966	2128205	BlankScreen	ANTI	106	4	False	red	180	[1035 1515  405  675]	[405 885 405 675]
1117.952	1.0	2128205	2129205	ELCue	ANTI	106	4	False	red	180	[1035 1515  405  675]	[405 885 405 675]
1119.36	6.0	2129613	2135640	ShowFixation	ANTI	107	4	False	red	460	[405 885 405 675]	[1035 1515  405  675]
1125.387	0.2	2135640	2135879	BlankScreen	ANTI	107	4	False	red	460	[405 885 405 675]	[1035 1515  405  675]
1125.626	1.0	2135879	2136879	ELCue	ANTI	107	4	False	red	460	[405 885 405 675]	[1035 1515  405  675]
1127.031	2.0	2137284	2139314	ShowFixation	VGS	108	4	False	lime	600	[1350 1830  405  675]	[ 90 570 405 675]
1129.061	0.2	2139314	2139549	BlankScreen	VGS	108	4	False	lime	600	[1350 1830  405  675]	[ 90 570 405 675]
1129.296	1.0	2139549	2140549	ELCue	VGS	108	4	False	lime	600	[1350 1830  405  675]	[ 90 570 405 675]
1130.707	6.0	2140960	2147001	ShowFixation	VGS	109	4	False	lime	180	[405 885 405 675]	[1035 1515  405  675]
1136.748	0.2	2147001	2147240	BlankScreen	VGS	109	4	False	lime	180	[405 885 405 675]	[1035 1515  405  675]
1136.987	1.0	2147240	2148240	ELCue	VGS	109	4	False	lime	180	[405 885 405 675]	[1035 1515  405  675]
1138.397	2.0	2148650	2150675	ShowFixation	VGS	110	4	False	lime	600	[1350 1830  405  675]	[ 90 570 405 675]
1140.422	0.2	2150675	2150911	BlankScreen	VGS	110	4	False	lime	600	[1350 1830  405  675]	[ 90 570 405 675]
1140.658	1.0	2150911	2151911	ELCue	VGS	110	4	False	lime	600	[1350 1830  405  675]	[ 90 570 405 675]
1142.059	2.0	2152312	2154346	ShowFixation	ANTI	111	4	False	red	40	[1350 1830  405  675]	[ 90 570 405 675]
1144.093	0.2	2154346	2154581	BlankScreen	ANTI	111	4	False	red	40	[1350 1830  405  675]	[ 90 570 405 675]
1144.328	1.0	2154581	2155581	ELCue	ANTI	111	4	False	red	40	[1350 1830  405  675]	[ 90 570 405 675]
1145.714	6.0	2155967	2161999	ShowFixation	VGS	112	4	False	lime	180	[405 885 405 675]	[1035 1515  405  675]
1151.746	0.2	2161999	2162239	BlankScreen	VGS	112	4	False	lime	180	[405 885 405 675]	[1035 1515  405  675]
1151.986	1.0	2162239	2163239	ELCue	VGS	112	4	False	lime	180	[405 885 405 675]	[1035 1515  405  675]
