onset	duration	startTime	stopTime	eventIdentifier	trial_type	trial_number	block_number	is_practice	fixation_color	cue_side	aoi_correct	aoi_incorrect
0.141	2.0	2110325	2112361	ShowFixation	VGS	1	1	True	lime	460	[1035 1515  405  675]	[405 885 405 675]
2.177	0.2	2112361	2112596	BlankScreen	VGS	1	1	True	lime	460	[1035 1515  405  675]	[405 885 405 675]
2.412	1.0	2112596	2113637	ELCue	VGS	1	1	True	lime	460	[1035 1515  405  675]	[405 885 405 675]
3.834	2.0	2114018	2116682	ShowFixation	ANTI	2	1	True	red	460	[405 885 405 675]	[1035 1515  405  675]
6.498	0.2	2116682	2116917	BlankScreen	ANTI	2	1	True	red	460	[405 885 405 675]	[1035 1515  405  675]
6.733	1.0	2116917	2117957	ELCue	ANTI	2	1	True	red	460	[405 885 405 675]	[1035 1515  405  675]
8.178	2.0	2118362	2120986	ShowFixation	ANTI	3	1	True	red	40	[1350 1830  405  675]	[ 90 570 405 675]
10.802	0.2	2120986	2121205	BlankScreen	ANTI	3	1	True	red	40	[1350 1830  405  675]	[ 90 570 405 675]
11.021	1.0	2121205	2122228	ELCue	ANTI	3	1	True	red	40	[1350 1830  405  675]	[ 90 570 405 675]
12.451	2.0	2122635	2125274	ShowFixation	VGS	4	1	True	lime	40	[ 90 570 405 675]	[1350 1830  405  675]
15.09	0.2	2125274	2125509	BlankScreen	VGS	4	1	True	lime	40	[ 90 570 405 675]	[1350 1830  405  675]
15.325	1.0	2125509	2126550	ELCue	VGS	4	1	True	lime	40	[ 90 570 405 675]	[1350 1830  405  675]
16.771	2.0	2126955	2129595	ShowFixation	ANTI	5	1	True	red	600	[ 90 570 405 675]	[1350 1830  405  675]
19.411	0.2	2129595	2129830	BlankScreen	ANTI	5	1	True	red	600	[ 90 570 405 675]	[1350 1830  405  675]
19.646	1.0	2129830	2130871	ELCue	ANTI	5	1	True	red	600	[ 90 570 405 675]	[1350 1830  405  675]
21.089	2.0	2131273	2133916	ShowFixation	VGS	6	1	True	lime	600	[1350 1830  405  675]	[ 90 570 405 675]
23.732	0.2	2133916	2134151	BlankScreen	VGS	6	1	True	lime	600	[1350 1830  405  675]	[ 90 570 405 675]
23.967	1.0	2134151	2135191	ELCue	VGS	6	1	True	lime	600	[1350 1830  405  675]	[ 90 570 405 675]
25.411	6.0	2135595	2142220	ShowFixation	ANTI	7	1	True	red	180	[1035 1515  405  675]	[405 885 405 675]
32.036	0.2	2142220	2142459	BlankScreen	ANTI	7	1	True	red	180	[1035 1515  405  675]	[405 885 405 675]
32.275	1.0	2142459	2143500	ELCue	ANTI	7	1	True	red	180	[1035 1515  405  675]	[405 885 405 675]
33.721	6.0	2143905	2150545	ShowFixation	VGS	8	1	True	lime	600	[1350 1830  405  675]	[ 90 570 405 675]
40.361	0.2	2150545	2150784	BlankScreen	VGS	8	1	True	lime	600	[1350 1830  405  675]	[ 90 570 405 675]
40.6	1.0	2150784	2151824	ELCue	VGS	8	1	True	lime	600	[1350 1830  405  675]	[ 90 570 405 675]
42.04	6.0	2152224	2158853	ShowFixation	VGS	9	1	True	lime	40	[ 90 570 405 675]	[1350 1830  405  675]
48.669	0.2	2158853	2159092	BlankScreen	VGS	9	1	True	lime	40	[ 90 570 405 675]	[1350 1830  405  675]
48.908	1.0	2159092	2160132	ELCue	VGS	9	1	True	lime	40	[ 90 570 405 675]	[1350 1830  405  675]
50.351	6.0	2160535	2167161	ShowFixation	VGS	10	1	True	lime	180	[405 885 405 675]	[1035 1515  405  675]
56.977	0.2	2167161	2167400	BlankScreen	VGS	10	1	True	lime	180	[405 885 405 675]	[1035 1515  405  675]
57.216	1.0	2167400	2168441	ELCue	VGS	10	1	True	lime	180	[405 885 405 675]	[1035 1515  405  675]
58.663	2.0	2168847	2171469	ShowFixation	ANTI	11	1	True	red	180	[1035 1515  405  675]	[405 885 405 675]
61.285	0.2	2171469	2171688	BlankScreen	ANTI	11	1	True	red	180	[1035 1515  405  675]	[405 885 405 675]
61.504	1.0	2171688	2172712	ELCue	ANTI	11	1	True	red	180	[1035 1515  405  675]	[405 885 405 675]
62.932	6.0	2173116	2179757	ShowFixation	VGS	12	1	True	lime	460	[1035 1515  405  675]	[405 885 405 675]
69.573	0.2	2179757	2179996	BlankScreen	VGS	12	1	True	lime	460	[1035 1515  405  675]	[405 885 405 675]
69.812	1.0	2179996	2181037	ELCue	VGS	12	1	True	lime	460	[1035 1515  405  675]	[405 885 405 675]
71.235	2.0	2181419	2184065	ShowFixation	VGS	13	1	True	lime	180	[405 885 405 675]	[1035 1515  405  675]
73.881	0.2	2184065	2184284	BlankScreen	VGS	13	1	True	lime	180	[405 885 405 675]	[1035 1515  405  675]
74.1	1.0	2184284	2185307	ELCue	VGS	13	1	True	lime	180	[405 885 405 675]	[1035 1515  405  675]
75.523	6.0	2185707	2192353	ShowFixation	ANTI	14	1	True	red	460	[405 885 405 675]	[1035 1515  405  675]
82.169	0.2	2192353	2192592	BlankScreen	ANTI	14	1	True	red	460	[405 885 405 675]	[1035 1515  405  675]
82.408	1.0	2192592	2193632	ELCue	ANTI	14	1	True	red	460	[405 885 405 675]	[1035 1515  405  675]
83.816	6.0	2194000	2200661	ShowFixation	ANTI	15	1	True	red	600	[ 90 570 405 675]	[1350 1830  405  675]
90.477	0.2	2200661	2200900	BlankScreen	ANTI	15	1	True	red	600	[ 90 570 405 675]	[1350 1830  405  675]
90.716	1.0	2200900	2201941	ELCue	ANTI	15	1	True	red	600	[ 90 570 405 675]	[1350 1830  405  675]
92.156	6.0	2202340	2208969	ShowFixation	ANTI	16	1	True	red	40	[1350 1830  405  675]	[ 90 570 405 675]
98.785	0.2	2208969	2209208	BlankScreen	ANTI	16	1	True	red	40	[1350 1830  405  675]	[ 90 570 405 675]
99.024	1.0	2209208	2210249	ELCue	ANTI	16	1	True	red	40	[1350 1830  405  675]	[ 90 570 405 675]
142.565	2.0	2252749	2254786	ShowFixation	VGS	17	2	False	lime	180	[405 885 405 675]	[1035 1515  405  675]
144.602	0.2	2254786	2255021	BlankScreen	VGS	17	2	False	lime	180	[405 885 405 675]	[1035 1515  405  675]
144.837	1.0	2255021	2256021	ELCue	VGS	17	2	False	lime	180	[405 885 405 675]	[1035 1515  405  675]
146.249	6.0	2256433	2262473	ShowFixation	ANTI	18	2	False	red	600	[ 90 570 405 675]	[1350 1830  405  675]
152.289	0.2	2262473	2262712	BlankScreen	ANTI	18	2	False	red	600	[ 90 570 405 675]	[1350 1830  405  675]
152.528	1.0	2262712	2263712	ELCue	ANTI	18	2	False	red	600	[ 90 570 405 675]	[1350 1830  405  675]
153.937	6.0	2264121	2270147	ShowFixation	VGS	19	2	False	lime	180	[405 885 405 675]	[1035 1515  405  675]
159.963	0.2	2270147	2270387	BlankScreen	VGS	19	2	False	lime	180	[405 885 405 675]	[1035 1515  405  675]
160.203	1.0	2270387	2271387	ELCue	VGS	19	2	False	lime	180	[405 885 405 675]	[1035 1515  405  675]
161.612	6.0	2271796	2277821	ShowFixation	ANTI	20	2	False	red	180	[1035 1515  405  675]	[405 885 405 675]
167.637	0.2	2277821	2278061	BlankScreen	ANTI	20	2	False	red	180	[1035 1515  405  675]	[405 885 405 675]
167.877	1.0	2278061	2279061	ELCue	ANTI	20	2	False	red	180	[1035 1515  405  675]	[405 885 405 675]
169.283	6.0	2279467	2285496	ShowFixation	ANTI	21	2	False	red	180	[1035 1515  405  675]	[405 885 405 675]
175.312	0.2	2285496	2285735	BlankScreen	ANTI	21	2	False	red	180	[1035 1515  405  675]	[405 885 405 675]
175.551	1.0	2285735	2286735	ELCue	ANTI	21	2	False	red	180	[1035 1515  405  675]	[405 885 405 675]
176.959	2.0	2287143	2289170	ShowFixation	VGS	22	2	False	lime	600	[1350 1830  405  675]	[ 90 570 405 675]
178.986	0.2	2289170	2289405	BlankScreen	VGS	22	2	False	lime	600	[1350 1830  405  675]	[ 90 570 405 675]
179.221	1.0	2289405	2290405	ELCue	VGS	22	2	False	lime	600	[1350 1830  405  675]	[ 90 570 405 675]
180.629	2.0	2290813	2292840	ShowFixation	ANTI	23	2	False	red	600	[ 90 570 405 675]	[1350 1830  405  675]
182.656	0.2	2292840	2293076	BlankScreen	ANTI	23	2	False	red	600	[ 90 570 405 675]	[1350 1830  405  675]
182.892	1.0	2293076	2294076	ELCue	ANTI	23	2	False	red	600	[ 90 570 405 675]	[1350 1830  405  675]
184.296	2.0	2294480	2296511	ShowFixation	ANTI	24	2	False	red	460	[405 885 405 675]	[1035 1515  405  675]
186.327	0.2	2296511	2296746	BlankScreen	ANTI	24	2	False	red	460	[405 885 405 675]	[1035 1515  405  675]
186.562	1.0	2296746	2297746	ELCue	ANTI	24	2	False	red	460	[405 885 405 675]	[1035 1515  405  675]
187.965	2.0	2298149	2300181	ShowFixation	ANTI	25	2	False	red	460	[405 885 405 675]	[1035 1515  405  675]
189.997	0.2	2300181	2300416	BlankScreen	ANTI	25	2	False	red	460	[405 885 405 675]	[1035 1515  405  675]
190.232	1.0	2300416	2301416	ELCue	ANTI	25	2	False	red	460	[405 885 405 675]	[1035 1515  405  675]
191.64	2.0	2301824	2303851	ShowFixation	ANTI	26	2	False	red	600	[ 90 570 405 675]	[1350 1830  405  675]
193.667	0.2	2303851	2304086	BlankScreen	ANTI	26	2	False	red	600	[ 90 570 405 675]	[1350 1830  405  675]
193.902	1.0	2304086	2305086	ELCue	ANTI	26	2	False	red	600	[ 90 570 405 675]	[1350 1830  405  675]
195.293	6.0	2305477	2311505	ShowFixation	ANTI	27	2	False	red	460	[405 885 405 675]	[1035 1515  405  675]
201.321	0.2	2311505	2311744	BlankScreen	ANTI	27	2	False	red	460	[405 885 405 675]	[1035 1515  405  675]
201.56	1.0	2311744	2312744	ELCue	ANTI	27	2	False	red	460	[405 885 405 675]	[1035 1515  405  675]
202.961	6.0	2313145	2319179	ShowFixation	VGS	28	2	False	lime	600	[1350 1830  405  675]	[ 90 570 405 675]
208.995	0.2	2319179	2319418	BlankScreen	VGS	28	2	False	lime	600	[1350 1830  405  675]	[ 90 570 405 675]
209.234	1.0	2319418	2320418	ELCue	VGS	28	2	False	lime	600	[1350 1830  405  675]	[ 90 570 405 675]
210.639	2.0	2320823	2322853	ShowFixation	VGS	29	2	False	lime	460	[1035 1515  405  675]	[405 885 405 675]
212.669	0.2	2322853	2323089	BlankScreen	VGS	29	2	False	lime	460	[1035 1515  405  675]	[405 885 405 675]
212.905	1.0	2323089	2324089	ELCue	VGS	29	2	False	lime	460	[1035 1515  405  675]	[405 885 405 675]
214.311	6.0	2324495	2330524	ShowFixation	VGS	30	2	False	lime	600	[1350 1830  405  675]	[ 90 570 405 675]
220.34	0.2	2330524	2330763	BlankScreen	VGS	30	2	False	lime	600	[1350 1830  405  675]	[ 90 570 405 675]
220.579	1.0	2330763	2331763	ELCue	VGS	30	2	False	lime	600	[1350 1830  405  675]	[ 90 570 405 675]
221.986	6.0	2332170	2338198	ShowFixation	VGS	31	2	False	lime	460	[1035 1515  405  675]	[405 885 405 675]
228.015	0.2	2338199	2338438	BlankScreen	VGS	31	2	False	lime	460	[1035 1515  405  675]	[405 885 405 675]
228.254	1.0	2338438	2339438	ELCue	VGS	31	2	False	lime	460	[1035 1515  405  675]	[405 885 405 675]
229.663	6.0	2339847	2345873	ShowFixation	VGS	32	2	False	lime	40	[ 90 570 405 675]	[1350 1830  405  675]
235.689	0.2	2345873	2346112	BlankScreen	VGS	32	2	False	lime	40	[ 90 570 405 675]	[1350 1830  405  675]
235.928	1.0	2346112	2347112	ELCue	VGS	32	2	False	lime	40	[ 90 570 405 675]	[1350 1830  405  675]
237.336	6.0	2347520	2353547	ShowFixation	ANTI	33	2	False	red	40	[1350 1830  405  675]	[ 90 570 405 675]
243.363	0.2	2353547	2353787	BlankScreen	ANTI	33	2	False	red	40	[1350 1830  405  675]	[ 90 570 405 675]
243.603	1.0	2353787	2354787	ELCue	ANTI	33	2	False	red	40	[1350 1830  405  675]	[ 90 570 405 675]
245.006	2.0	2355190	2357221	ShowFixation	ANTI	34	2	False	red	40	[1350 1830  405  675]	[ 90 570 405 675]
247.037	0.2	2357221	2357457	BlankScreen	ANTI	34	2	False	red	40	[1350 1830  405  675]	[ 90 570 405 675]
247.273	1.0	2357457	2358457	ELCue	ANTI	34	2	False	red	40	[1350 1830  405  675]	[ 90 570 405 675]
248.677	2.0	2358861	2360892	ShowFixation	ANTI	35	2	False	red	180	[1035 1515  405  675]	[405 885 405 675]
250.708	0.2	2360892	2361127	BlankScreen	ANTI	35	2	False	red	180	[1035 1515  405  675]	[405 885 405 675]
250.943	1.0	2361127	2362127	ELCue	ANTI	35	2	False	red	180	[1035 1515  405  675]	[405 885 405 675]
252.332	2.0	2362516	2364545	ShowFixation	VGS	36	2	False	lime	40	[ 90 570 405 675]	[1350 1830  405  675]
254.361	0.2	2364545	2364781	BlankScreen	VGS	36	2	False	lime	40	[ 90 570 405 675]	[1350 1830  405  675]
254.597	1.0	2364781	2365781	ELCue	VGS	36	2	False	lime	40	[ 90 570 405 675]	[1350 1830  405  675]
256.003	2.0	2366187	2368216	ShowFixation	ANTI	37	2	False	red	180	[1035 1515  405  675]	[405 885 405 675]
258.032	0.2	2368216	2368451	BlankScreen	ANTI	37	2	False	red	180	[1035 1515  405  675]	[405 885 405 675]
258.267	1.0	2368451	2369451	ELCue	ANTI	37	2	False	red	180	[1035 1515  405  675]	[405 885 405 675]
259.674	6.0	2369858	2375886	ShowFixation	ANTI	38	2	False	red	600	[ 90 570 405 675]	[1350 1830  405  675]
265.702	0.2	2375886	2376125	BlankScreen	ANTI	38	2	False	red	600	[ 90 570 405 675]	[1350 1830  405  675]
265.941	1.0	2376125	2377125	ELCue	ANTI	38	2	False	red	600	[ 90 570 405 675]	[1350 1830  405  675]
267.353	2.0	2377537	2379577	ShowFixation	VGS	39	2	False	lime	180	[405 885 405 675]	[1035 1515  405  675]
269.393	0.2	2379577	2379812	BlankScreen	VGS	39	2	False	lime	180	[405 885 405 675]	[1035 1515  405  675]
269.628	1.0	2379812	2380812	ELCue	VGS	39	2	False	lime	180	[405 885 405 675]	[1035 1515  405  675]
271.035	6.0	2381219	2387247	ShowFixation	ANTI	40	2	False	red	460	[405 885 405 675]	[1035 1515  405  675]
277.063	0.2	2387247	2387487	BlankScreen	ANTI	40	2	False	red	460	[405 885 405 675]	[1035 1515  405  675]
277.303	1.0	2387487	2388487	ELCue	ANTI	40	2	False	red	460	[405 885 405 675]	[1035 1515  405  675]
278.671	6.0	2388855	2394888	ShowFixation	ANTI	41	2	False	red	40	[1350 1830  405  675]	[ 90 570 405 675]
284.704	0.2	2394888	2395127	BlankScreen	ANTI	41	2	False	red	40	[1350 1830  405  675]	[ 90 570 405 675]
284.943	1.0	2395127	2396127	ELCue	ANTI	41	2	False	red	40	[1350 1830  405  675]	[ 90 570 405 675]
286.351	6.0	2396535	2402562	ShowFixation	VGS	42	2	False	lime	460	[1035 1515  405  675]	[405 885 405 675]
292.378	0.2	2402562	2402802	BlankScreen	VGS	42	2	False	lime	460	[1035 1515  405  675]	[405 885 405 675]
292.618	1.0	2402802	2403802	ELCue	VGS	42	2	False	lime	460	[1035 1515  405  675]	[405 885 405 675]
294.028	6.0	2404212	2410253	ShowFixation	VGS	43	2	False	lime	180	[405 885 405 675]	[1035 1515  405  675]
300.069	0.2	2410253	2410493	BlankScreen	VGS	43	2	False	lime	180	[405 885 405 675]	[1035 1515  405  675]
300.309	1.0	2410493	2411493	ELCue	VGS	43	2	False	lime	180	[405 885 405 675]	[1035 1515  405  675]
301.717	2.0	2411901	2413928	ShowFixation	ANTI	44	2	False	red	40	[1350 1830  405  675]	[ 90 570 405 675]
303.744	0.2	2413928	2414163	BlankScreen	ANTI	44	2	False	red	40	[1350 1830  405  675]	[ 90 570 405 675]
303.979	1.0	2414163	2415163	ELCue	ANTI	44	2	False	red	40	[1350 1830  405  675]	[ 90 570 405 675]
305.39	2.0	2415574	2417614	ShowFixation	VGS	45	2	False	lime	600	[1350 1830  405  675]	[ 90 570 405 675]
307.43	0.2	2417614	2417850	BlankScreen	VGS	45	2	False	lime	600	[1350 1830  405  675]	[ 90 570 405 675]
307.666	1.0	2417850	2418850	ELCue	VGS	45	2	False	lime	600	[1350 1830  405  675]	[ 90 570 405 675]
309.131	2.0	2419315	2421352	ShowFixation	VGS	46	2	False	lime	40	[ 90 570 405 675]	[1350 1830  405  675]
311.168	0.2	2421352	2421587	BlankScreen	VGS	46	2	False	lime	40	[ 90 570 405 675]	[1350 1830  405  675]
311.403	1.0	2421587	2422587	ELCue	VGS	46	2	False	lime	40	[ 90 570 405 675]	[1350 1830  405  675]
312.811	2.0	2422995	2425022	ShowFixation	VGS	47	2	False	lime	460	[1035 1515  405  675]	[405 885 405 675]
314.838	0.2	2425022	2425257	BlankScreen	VGS	47	2	False	lime	460	[1035 1515  405  675]	[405 885 405 675]
315.073	1.0	2425257	2426257	ELCue	VGS	47	2	False	lime	460	[1035 1515  405  675]	[405 885 405 675]
316.482	6.0	2426666	2432692	ShowFixation	VGS	48	2	False	lime	40	[ 90 570 405 675]	[1350 1830  405  675]
322.508	0.2	2432692	2432931	BlankScreen	VGS	48	2	False	lime	40	[ 90 570 405 675]	[1350 1830  405  675]
322.747	1.0	2432931	2433931	ELCue	VGS	48	2	False	lime	40	[ 90 570 405 675]	[1350 1830  405  675]
366.203	2.0	2476387	2478426	ShowFixation	ANTI	49	3	False	red	600	[ 90 570 405 675]	[1350 1830  405  675]
368.242	0.2	2478426	2478661	BlankScreen	ANTI	49	3	False	red	600	[ 90 570 405 675]	[1350 1830  405  675]
368.477	1.0	2478661	2479661	ELCue	ANTI	49	3	False	red	600	[ 90 570 405 675]	[1350 1830  405  675]
369.883	2.0	2480067	2482096	ShowFixation	VGS	50	3	False	lime	40	[ 90 570 405 675]	[1350 1830  405  675]
371.912	0.2	2482096	2482331	BlankScreen	VGS	50	3	False	lime	40	[ 90 570 405 675]	[1350 1830  405  675]
372.147	1.0	2482331	2483331	ELCue	VGS	50	3	False	lime	40	[ 90 570 405 675]	[1350 1830  405  675]
373.555	2.0	2483739	2485766	ShowFixation	VGS	51	3	False	lime	460	[1035 1515  405  675]	[405 885 405 675]
375.582	0.2	2485766	2486001	BlankScreen	VGS	51	3	False	lime	460	[1035 1515  405  675]	[405 885 405 675]
375.817	1.0	2486001	2487001	ELCue	VGS	51	3	False	lime	460	[1035 1515  405  675]	[405 885 405 675]
377.209	6.0	2487393	2493420	ShowFixation	ANTI	52	3	False	red	40	[1350 1830  405  675]	[ 90 570 405 675]
383.236	0.2	2493420	2493659	BlankScreen	ANTI	52	3	False	red	40	[1350 1830  405  675]	[ 90 570 405 675]
383.475	1.0	2493659	2494659	ELCue	ANTI	52	3	False	red	40	[1350 1830  405  675]	[ 90 570 405 675]
384.882	2.0	2495066	2497094	ShowFixation	ANTI	53	3	False	red	600	[ 90 570 405 675]	[1350 1830  405  675]
386.91	0.2	2497094	2497329	BlankScreen	ANTI	53	3	False	red	600	[ 90 570 405 675]	[1350 1830  405  675]
387.145	1.0	2497329	2498329	ELCue	ANTI	53	3	False	red	600	[ 90 570 405 675]	[1350 1830  405  675]
388.551	2.0	2498735	2500764	ShowFixation	ANTI	54	3	False	red	40	[1350 1830  405  675]	[ 90 570 405 675]
390.58	0.2	2500764	2501000	BlankScreen	ANTI	54	3	False	red	40	[1350 1830  405  675]	[ 90 570 405 675]
390.816	1.0	2501000	2502000	ELCue	ANTI	54	3	False	red	40	[1350 1830  405  675]	[ 90 570 405 675]
392.224	2.0	2502408	2504435	ShowFixation	ANTI	55	3	False	red	180	[1035 1515  405  675]	[405 885 405 675]
394.251	0.2	2504435	2504670	BlankScreen	ANTI	55	3	False	red	180	[1035 1515  405  675]	[405 885 405 675]
394.486	1.0	2504670	2505670	ELCue	ANTI	55	3	False	red	180	[1035 1515  405  675]	[405 885 405 675]
395.898	6.0	2506082	2512122	ShowFixation	ANTI	56	3	False	red	600	[ 90 570 405 675]	[1350 1830  405  675]
401.938	0.2	2512122	2512361	BlankScreen	ANTI	56	3	False	red	600	[ 90 570 405 675]	[1350 1830  405  675]
402.177	1.0	2512361	2513361	ELCue	ANTI	56	3	False	red	600	[ 90 570 405 675]	[1350 1830  405  675]
403.579	2.0	2513763	2515796	ShowFixation	VGS	57	3	False	lime	460	[1035 1515  405  675]	[405 885 405 675]
405.612	0.2	2515796	2516031	BlankScreen	VGS	57	3	False	lime	460	[1035 1515  405  675]	[405 885 405 675]
405.847	1.0	2516031	2517031	ELCue	VGS	57	3	False	lime	460	[1035 1515  405  675]	[405 885 405 675]
407.22	6.0	2517404	2523433	ShowFixation	VGS	58	3	False	lime	180	[405 885 405 675]	[1035 1515  405  675]
413.249	0.2	2523433	2523672	BlankScreen	VGS	58	3	False	lime	180	[405 885 405 675]	[1035 1515  405  675]
413.488	1.0	2523672	2524672	ELCue	VGS	58	3	False	lime	180	[405 885 405 675]	[1035 1515  405  675]
414.88	2.0	2525064	2527090	ShowFixation	ANTI	59	3	False	red	460	[405 885 405 675]	[1035 1515  405  675]
416.906	0.2	2527090	2527326	BlankScreen	ANTI	59	3	False	red	460	[405 885 405 675]	[1035 1515  405  675]
417.142	1.0	2527326	2528326	ELCue	ANTI	59	3	False	red	460	[405 885 405 675]	[1035 1515  405  675]
418.549	2.0	2528733	2530761	ShowFixation	VGS	60	3	False	lime	180	[405 885 405 675]	[1035 1515  405  675]
420.577	0.2	2530761	2530996	BlankScreen	VGS	60	3	False	lime	180	[405 885 405 675]	[1035 1515  405  675]
420.812	1.0	2530996	2531996	ELCue	VGS	60	3	False	lime	180	[405 885 405 675]	[1035 1515  405  675]
422.206	2.0	2532390	2534431	ShowFixation	ANTI	61	3	False	red	40	[1350 1830  405  675]	[ 90 570 405 675]
424.247	0.2	2534431	2534666	BlankScreen	ANTI	61	3	False	red	40	[1350 1830  405  675]	[ 90 570 405 675]
424.482	1.0	2534666	2535666	ELCue	ANTI	61	3	False	red	40	[1350 1830  405  675]	[ 90 570 405 675]
425.889	6.0	2536073	2542101	ShowFixation	ANTI	62	3	False	red	600	[ 90 570 405 675]	[1350 1830  405  675]
431.917	0.2	2542101	2542340	BlankScreen	ANTI	62	3	False	red	600	[ 90 570 405 675]	[1350 1830  405  675]
432.156	1.0	2542340	2543340	ELCue	ANTI	62	3	False	red	600	[ 90 570 405 675]	[1350 1830  405  675]
433.562	6.0	2543746	2549775	ShowFixation	VGS	63	3	False	lime	600	[1350 1830  405  675]	[ 90 570 405 675]
439.591	0.2	2549775	2550015	BlankScreen	VGS	63	3	False	lime	600	[1350 1830  405  675]	[ 90 570 405 675]
439.831	1.0	2550015	2551015	ELCue	VGS	63	3	False	lime	600	[1350 1830  405  675]	[ 90 570 405 675]
441.237	6.0	2551421	2557450	ShowFixation	VGS	64	3	False	lime	460	[1035 1515  405  675]	[405 885 405 675]
447.266	0.2	2557450	2557689	BlankScreen	VGS	64	3	False	lime	460	[1035 1515  405  675]	[405 885 405 675]
447.505	1.0	2557689	2558689	ELCue	VGS	64	3	False	lime	460	[1035 1515  405  675]	[405 885 405 675]
448.923	6.0	2559107	2565141	ShowFixation	VGS	65	3	False	lime	600	[1350 1830  405  675]	[ 90 570 405 675]
454.957	0.2	2565141	2565380	BlankScreen	VGS	65	3	False	lime	600	[1350 1830  405  675]	[ 90 570 405 675]
455.196	1.0	2565380	2566380	ELCue	VGS	65	3	False	lime	600	[1350 1830  405  675]	[ 90 570 405 675]
456.604	2.0	2566788	2568815	ShowFixation	VGS	66	3	False	lime	600	[1350 1830  405  675]	[ 90 570 405 675]
458.631	0.2	2568815	2569050	BlankScreen	VGS	66	3	False	lime	600	[1350 1830  405  675]	[ 90 570 405 675]
458.866	1.0	2569050	2570050	ELCue	VGS	66	3	False	lime	600	[1350 1830  405  675]	[ 90 570 405 675]
460.273	2.0	2570457	2572485	ShowFixation	VGS	67	3	False	lime	600	[1350 1830  405  675]	[ 90 570 405 675]
462.301	0.2	2572485	2572721	BlankScreen	VGS	67	3	False	lime	600	[1350 1830  405  675]	[ 90 570 405 675]
462.537	1.0	2572721	2573721	ELCue	VGS	67	3	False	lime	600	[1350 1830  405  675]	[ 90 570 405 675]
463.942	6.0	2574126	2580155	ShowFixation	VGS	68	3	False	lime	40	[ 90 570 405 675]	[1350 1830  405  675]
469.971	0.2	2580155	2580395	BlankScreen	VGS	68	3	False	lime	40	[ 90 570 405 675]	[1350 1830  405  675]
470.212	1.0	2580396	2581396	ELCue	VGS	68	3	False	lime	40	[ 90 570 405 675]	[1350 1830  405  675]
471.623	6.0	2581807	2587847	ShowFixation	ANTI	69	3	False	red	460	[405 885 405 675]	[1035 1515  405  675]
477.663	0.2	2587847	2588086	BlankScreen	ANTI	69	3	False	red	460	[405 885 405 675]	[1035 1515  405  675]
477.903	1.0	2588087	2589087	ELCue	ANTI	69	3	False	red	460	[405 885 405 675]	[1035 1515  405  675]
479.316	6.0	2589500	2595538	ShowFixation	ANTI	70	3	False	red	180	[1035 1515  405  675]	[405 885 405 675]
485.354	0.2	2595538	2595778	BlankScreen	ANTI	70	3	False	red	180	[1035 1515  405  675]	[405 885 405 675]
485.594	1.0	2595778	2596778	ELCue	ANTI	70	3	False	red	180	[1035 1515  405  675]	[405 885 405 675]
486.989	6.0	2597173	2603213	ShowFixation	VGS	71	3	False	lime	40	[ 90 570 405 675]	[1350 1830  405  675]
493.029	0.2	2603213	2603452	BlankScreen	VGS	71	3	False	lime	40	[ 90 570 405 675]	[1350 1830  405  675]
493.268	1.0	2603452	2604452	ELCue	VGS	71	3	False	lime	40	[ 90 570 405 675]	[1350 1830  405  675]
494.675	2.0	2604859	2606887	ShowFixation	ANTI	72	3	False	red	460	[405 885 405 675]	[1035 1515  405  675]
496.703	0.2	2606887	2607122	BlankScreen	ANTI	72	3	False	red	460	[405 885 405 675]	[1035 1515  405  675]
496.938	1.0	2607122	2608122	ELCue	ANTI	72	3	False	red	460	[405 885 405 675]	[1035 1515  405  675]
498.346	6.0	2608530	2614557	ShowFixation	VGS	73	3	False	lime	460	[1035 1515  405  675]	[405 885 405 675]
504.373	0.2	2614557	2614796	BlankScreen	VGS	73	3	False	lime	460	[1035 1515  405  675]	[405 885 405 675]
504.612	1.0	2614796	2615796	ELCue	VGS	73	3	False	lime	460	[1035 1515  405  675]	[405 885 405 675]
506.022	2.0	2616206	2618231	ShowFixation	VGS	74	3	False	lime	40	[ 90 570 405 675]	[1350 1830  405  675]
508.047	0.2	2618231	2618467	BlankScreen	VGS	74	3	False	lime	40	[ 90 570 405 675]	[1350 1830  405  675]
508.283	1.0	2618467	2619467	ELCue	VGS	74	3	False	lime	40	[ 90 570 405 675]	[1350 1830  405  675]
509.671	6.0	2619855	2625885	ShowFixation	ANTI	75	3	False	red	180	[1035 1515  405  675]	[405 885 405 675]
515.701	0.2	2625885	2626124	BlankScreen	ANTI	75	3	False	red	180	[1035 1515  405  675]	[405 885 405 675]
515.94	1.0	2626124	2627124	ELCue	ANTI	75	3	False	red	180	[1035 1515  405  675]	[405 885 405 675]
517.349	2.0	2627533	2629559	ShowFixation	VGS	76	3	False	lime	180	[405 885 405 675]	[1035 1515  405  675]
519.375	0.2	2629559	2629795	BlankScreen	VGS	76	3	False	lime	180	[405 885 405 675]	[1035 1515  405  675]
519.611	1.0	2629795	2630795	ELCue	VGS	76	3	False	lime	180	[405 885 405 675]	[1035 1515  405  675]
521.02	6.0	2631204	2637229	ShowFixation	ANTI	77	3	False	red	40	[1350 1830  405  675]	[ 90 570 405 675]
527.045	0.2	2637229	2637469	BlankScreen	ANTI	77	3	False	red	40	[1350 1830  405  675]	[ 90 570 405 675]
527.285	1.0	2637469	2638469	ELCue	ANTI	77	3	False	red	40	[1350 1830  405  675]	[ 90 570 405 675]
528.693	6.0	2638877	2644904	ShowFixation	VGS	78	3	False	lime	180	[405 885 405 675]	[1035 1515  405  675]
534.72	0.2	2644904	2645143	BlankScreen	VGS	78	3	False	lime	180	[405 885 405 675]	[1035 1515  405  675]
534.959	1.0	2645143	2646143	ELCue	VGS	78	3	False	lime	180	[405 885 405 675]	[1035 1515  405  675]
536.367	2.0	2646551	2648578	ShowFixation	ANTI	79	3	False	red	180	[1035 1515  405  675]	[405 885 405 675]
538.394	0.2	2648578	2648813	BlankScreen	ANTI	79	3	False	red	180	[1035 1515  405  675]	[405 885 405 675]
538.629	1.0	2648813	2649813	ELCue	ANTI	79	3	False	red	180	[1035 1515  405  675]	[405 885 405 675]
540.034	6.0	2650218	2656248	ShowFixation	ANTI	80	3	False	red	460	[405 885 405 675]	[1035 1515  405  675]
546.064	0.2	2656248	2656488	BlankScreen	ANTI	80	3	False	red	460	[405 885 405 675]	[1035 1515  405  675]
546.304	1.0	2656488	2657488	ELCue	ANTI	80	3	False	red	460	[405 885 405 675]	[1035 1515  405  675]
571.114	2.0	2681298	2683329	ShowFixation	ANTI	81	4	False	red	600	[ 90 570 405 675]	[1350 1830  405  675]
573.145	0.2	2683329	2683564	BlankScreen	ANTI	81	4	False	red	600	[ 90 570 405 675]	[1350 1830  405  675]
573.38	1.0	2683564	2684564	ELCue	ANTI	81	4	False	red	600	[ 90 570 405 675]	[1350 1830  405  675]
574.781	6.0	2684965	2690999	ShowFixation	VGS	82	4	False	lime	180	[405 885 405 675]	[1035 1515  405  675]
580.815	0.2	2690999	2691239	BlankScreen	VGS	82	4	False	lime	180	[405 885 405 675]	[1035 1515  405  675]
581.055	1.0	2691239	2692239	ELCue	VGS	82	4	False	lime	180	[405 885 405 675]	[1035 1515  405  675]
582.466	6.0	2692650	2698690	ShowFixation	VGS	83	4	False	lime	40	[ 90 570 405 675]	[1350 1830  405  675]
588.506	0.2	2698690	2698930	BlankScreen	VGS	83	4	False	lime	40	[ 90 570 405 675]	[1350 1830  405  675]
588.746	1.0	2698930	2699930	ELCue	VGS	83	4	False	lime	40	[ 90 570 405 675]	[1350 1830  405  675]
590.157	6.0	2700341	2706382	ShowFixation	VGS	84	4	False	lime	600	[1350 1830  405  675]	[ 90 570 405 675]
596.198	0.2	2706382	2706620	BlankScreen	VGS	84	4	False	lime	600	[1350 1830  405  675]	[ 90 570 405 675]
596.437	1.0	2706621	2707621	ELCue	VGS	84	4	False	lime	600	[1350 1830  405  675]	[ 90 570 405 675]
597.846	6.0	2708030	2714056	ShowFixation	VGS	85	4	False	lime	180	[405 885 405 675]	[1035 1515  405  675]
603.872	0.2	2714056	2714296	BlankScreen	VGS	85	4	False	lime	180	[405 885 405 675]	[1035 1515  405  675]
604.112	1.0	2714296	2715296	ELCue	VGS	85	4	False	lime	180	[405 885 405 675]	[1035 1515  405  675]
605.514	2.0	2715698	2717731	ShowFixation	VGS	86	4	False	lime	40	[ 90 570 405 675]	[1350 1830  405  675]
607.547	0.2	2717731	2717966	BlankScreen	VGS	86	4	False	lime	40	[ 90 570 405 675]	[1350 1830  405  675]
607.782	1.0	2717966	2718966	ELCue	VGS	86	4	False	lime	40	[ 90 570 405 675]	[1350 1830  405  675]
609.188	2.0	2719372	2721401	ShowFixation	ANTI	87	4	False	red	40	[1350 1830  405  675]	[ 90 570 405 675]
611.217	0.2	2721401	2721636	BlankScreen	ANTI	87	4	False	red	40	[1350 1830  405  675]	[ 90 570 405 675]
611.452	1.0	2721636	2722636	ELCue	ANTI	87	4	False	red	40	[1350 1830  405  675]	[ 90 570 405 675]
612.855	6.0	2723039	2729071	ShowFixation	ANTI	88	4	False	red	40	[1350 1830  405  675]	[ 90 570 405 675]
618.887	0.2	2729071	2729311	BlankScreen	ANTI	88	4	False	red	40	[1350 1830  405  675]	[ 90 570 405 675]
619.127	1.0	2729311	2730311	ELCue	ANTI	88	4	False	red	40	[1350 1830  405  675]	[ 90 570 405 675]
620.534	6.0	2730718	2736745	ShowFixation	ANTI	89	4	False	red	40	[1350 1830  405  675]	[ 90 570 405 675]
626.561	0.2	2736745	2736985	BlankScreen	ANTI	89	4	False	red	40	[1350 1830  405  675]	[ 90 570 405 675]
626.801	1.0	2736985	2737985	ELCue	ANTI	89	4	False	red	40	[1350 1830  405  675]	[ 90 570 405 675]
628.212	6.0	2738396	2744436	ShowFixation	ANTI	90	4	False	red	600	[ 90 570 405 675]	[1350 1830  405  675]
634.252	0.2	2744436	2744676	BlankScreen	ANTI	90	4	False	red	600	[ 90 570 405 675]	[1350 1830  405  675]
634.492	1.0	2744676	2745676	ELCue	ANTI	90	4	False	red	600	[ 90 570 405 675]	[1350 1830  405  675]
635.88	6.0	2746064	2752094	ShowFixation	VGS	91	4	False	lime	600	[1350 1830  405  675]	[ 90 570 405 675]
641.91	0.2	2752094	2752333	BlankScreen	VGS	91	4	False	lime	600	[1350 1830  405  675]	[ 90 570 405 675]
642.149	1.0	2752333	2753333	ELCue	VGS	91	4	False	lime	600	[1350 1830  405  675]	[ 90 570 405 675]
643.558	2.0	2753742	2755768	ShowFixation	VGS	92	4	False	lime	180	[405 885 405 675]	[1035 1515  405  675]
645.584	0.2	2755768	2756004	BlankScreen	VGS	92	4	False	lime	180	[405 885 405 675]	[1035 1515  405  675]
645.82	1.0	2756004	2757004	ELCue	VGS	92	4	False	lime	180	[405 885 405 675]	[1035 1515  405  675]
647.206	2.0	2757390	2759422	ShowFixation	ANTI	93	4	False	red	180	[1035 1515  405  675]	[405 885 405 675]
649.238	0.2	2759422	2759657	BlankScreen	ANTI	93	4	False	red	180	[1035 1515  405  675]	[405 885 405 675]
649.473	1.0	2759657	2760657	ELCue	ANTI	93	4	False	red	180	[1035 1515  405  675]	[405 885 405 675]
650.88	2.0	2761064	2763092	ShowFixation	ANTI	94	4	False	red	180	[1035 1515  405  675]	[405 885 405 675]
652.908	0.2	2763092	2763327	BlankScreen	ANTI	94	4	False	red	180	[1035 1515  405  675]	[405 885 405 675]
653.143	1.0	2763327	2764327	ELCue	ANTI	94	4	False	red	180	[1035 1515  405  675]	[405 885 405 675]
654.548	6.0	2764732	2770762	ShowFixation	ANTI	95	4	False	red	180	[1035 1515  405  675]	[405 885 405 675]
660.578	0.2	2770762	2771002	BlankScreen	ANTI	95	4	False	red	180	[1035 1515  405  675]	[405 885 405 675]
660.818	1.0	2771002	2772002	ELCue	ANTI	95	4	False	red	180	[1035 1515  405  675]	[405 885 405 675]
662.228	2.0	2772412	2774437	ShowFixation	VGS	96	4	False	lime	180	[405 885 405 675]	[1035 1515  405  675]
664.253	0.2	2774437	2774672	BlankScreen	VGS	96	4	False	lime	180	[405 885 405 675]	[1035 1515  405  675]
664.488	1.0	2774672	2775672	ELCue	VGS	96	4	False	lime	180	[405 885 405 675]	[1035 1515  405  675]
665.895	2.0	2776079	2778107	ShowFixation	ANTI	97	4	False	red	460	[405 885 405 675]	[1035 1515  405  675]
667.923	0.2	2778107	2778342	BlankScreen	ANTI	97	4	False	red	460	[405 885 405 675]	[1035 1515  405  675]
668.158	1.0	2778342	2779342	ELCue	ANTI	97	4	False	red	460	[405 885 405 675]	[1035 1515  405  675]
669.544	6.0	2779728	2785761	ShowFixation	VGS	98	4	False	lime	40	[ 90 570 405 675]	[1350 1830  405  675]
675.577	0.2	2785761	2786000	BlankScreen	VGS	98	4	False	lime	40	[ 90 570 405 675]	[1350 1830  405  675]
675.816	1.0	2786000	2787000	ELCue	VGS	98	4	False	lime	40	[ 90 570 405 675]	[1350 1830  405  675]
677.231	2.0	2787415	2789451	ShowFixation	VGS	99	4	False	lime	600	[1350 1830  405  675]	[ 90 570 405 675]
679.267	0.2	2789451	2789687	BlankScreen	VGS	99	4	False	lime	600	[1350 1830  405  675]	[ 90 570 405 675]
679.503	1.0	2789687	2790687	ELCue	VGS	99	4	False	lime	600	[1350 1830  405  675]	[ 90 570 405 675]
680.91	2.0	2791094	2793122	ShowFixation	ANTI	100	4	False	red	460	[405 885 405 675]	[1035 1515  405  675]
682.938	0.2	2793122	2793357	BlankScreen	ANTI	100	4	False	red	460	[405 885 405 675]	[1035 1515  405  675]
683.173	1.0	2793357	2794357	ELCue	ANTI	100	4	False	red	460	[405 885 405 675]	[1035 1515  405  675]
684.545	2.0	2794729	2796759	ShowFixation	VGS	101	4	False	lime	460	[1035 1515  405  675]	[405 885 405 675]
686.575	0.2	2796759	2796994	BlankScreen	VGS	101	4	False	lime	460	[1035 1515  405  675]	[405 885 405 675]
686.81	1.0	2796994	2797994	ELCue	VGS	101	4	False	lime	460	[1035 1515  405  675]	[405 885 405 675]
688.217	6.0	2798401	2804429	ShowFixation	VGS	102	4	False	lime	460	[1035 1515  405  675]	[405 885 405 675]
694.245	0.2	2804429	2804668	BlankScreen	VGS	102	4	False	lime	460	[1035 1515  405  675]	[405 885 405 675]
694.484	1.0	2804668	2805668	ELCue	VGS	102	4	False	lime	460	[1035 1515  405  675]	[405 885 405 675]
695.874	2.0	2806058	2808087	ShowFixation	ANTI	103	4	False	red	40	[1350 1830  405  675]	[ 90 570 405 675]
697.903	0.2	2808087	2808322	BlankScreen	ANTI	103	4	False	red	40	[1350 1830  405  675]	[ 90 570 405 675]
698.138	1.0	2808322	2809322	ELCue	ANTI	103	4	False	red	40	[1350 1830  405  675]	[ 90 570 405 675]
699.547	2.0	2809731	2811757	ShowFixation	VGS	104	4	False	lime	600	[1350 1830  405  675]	[ 90 570 405 675]
701.573	0.2	2811757	2811992	BlankScreen	VGS	104	4	False	lime	600	[1350 1830  405  675]	[ 90 570 405 675]
701.808	1.0	2811992	2812992	ELCue	VGS	104	4	False	lime	600	[1350 1830  405  675]	[ 90 570 405 675]
703.193	6.0	2813377	2819410	ShowFixation	ANTI	105	4	False	red	460	[405 885 405 675]	[1035 1515  405  675]
709.226	0.2	2819410	2819650	BlankScreen	ANTI	105	4	False	red	460	[405 885 405 675]	[1035 1515  405  675]
709.466	1.0	2819650	2820650	ELCue	ANTI	105	4	False	red	460	[405 885 405 675]	[1035 1515  405  675]
710.88	2.0	2821064	2823101	ShowFixation	VGS	106	4	False	lime	460	[1035 1515  405  675]	[405 885 405 675]
712.917	0.2	2823101	2823337	BlankScreen	VGS	106	4	False	lime	460	[1035 1515  405  675]	[405 885 405 675]
713.153	1.0	2823337	2824337	ELCue	VGS	106	4	False	lime	460	[1035 1515  405  675]	[405 885 405 675]
714.565	6.0	2824749	2830788	ShowFixation	ANTI	107	4	False	red	600	[ 90 570 405 675]	[1350 1830  405  675]
720.605	0.2	2830789	2831028	BlankScreen	ANTI	107	4	False	red	600	[ 90 570 405 675]	[1350 1830  405  675]
720.844	1.0	2831028	2832028	ELCue	ANTI	107	4	False	red	600	[ 90 570 405 675]	[1350 1830  405  675]
722.255	6.0	2832439	2838480	ShowFixation	ANTI	108	4	False	red	180	[1035 1515  405  675]	[405 885 405 675]
728.296	0.2	2838480	2838720	BlankScreen	ANTI	108	4	False	red	180	[1035 1515  405  675]	[405 885 405 675]
728.536	1.0	2838720	2839720	ELCue	ANTI	108	4	False	red	180	[1035 1515  405  675]	[405 885 405 675]
729.944	2.0	2840128	2842155	ShowFixation	VGS	109	4	False	lime	40	[ 90 570 405 675]	[1350 1830  405  675]
731.971	0.2	2842155	2842390	BlankScreen	VGS	109	4	False	lime	40	[ 90 570 405 675]	[1350 1830  405  675]
732.206	1.0	2842390	2843390	ELCue	VGS	109	4	False	lime	40	[ 90 570 405 675]	[1350 1830  405  675]
733.61	6.0	2843794	2849825	ShowFixation	ANTI	110	4	False	red	460	[405 885 405 675]	[1035 1515  405  675]
739.641	0.2	2849825	2850064	BlankScreen	ANTI	110	4	False	red	460	[405 885 405 675]	[1035 1515  405  675]
739.88	1.0	2850064	2851064	ELCue	ANTI	110	4	False	red	460	[405 885 405 675]	[1035 1515  405  675]
741.273	6.0	2851457	2857482	ShowFixation	VGS	111	4	False	lime	460	[1035 1515  405  675]	[405 885 405 675]
747.298	0.2	2857482	2857722	BlankScreen	VGS	111	4	False	lime	460	[1035 1515  405  675]	[405 885 405 675]
747.538	1.0	2857722	2858722	ELCue	VGS	111	4	False	lime	460	[1035 1515  405  675]	[405 885 405 675]
748.947	2.0	2859131	2861157	ShowFixation	ANTI	112	4	False	red	600	[ 90 570 405 675]	[1350 1830  405  675]
750.973	0.2	2861157	2861392	BlankScreen	ANTI	112	4	False	red	600	[ 90 570 405 675]	[1350 1830  405  675]
751.208	1.0	2861392	2862392	ELCue	ANTI	112	4	False	red	600	[ 90 570 405 675]	[1350 1830  405  675]
