onset	duration	startTime	stopTime	eventIdentifier	trial_type	trial_number	block_number	is_practice	fixation_color	cue_side	aoi_correct	aoi_incorrect
0.141	6.0	4785991	4792029	ShowFixation	ANTI	1	1	True	red	180	[1035 1515  405  675]	[405 885 405 675]
6.179	0.2	4792029	4792268	BlankScreen	ANTI	1	1	True	red	180	[1035 1515  405  675]	[405 885 405 675]
6.418	1.0	4792268	4793306	ELCue	ANTI	1	1	True	red	180	[1035 1515  405  675]	[405 885 405 675]
7.848	2.0	4793698	4796337	ShowFixation	ANTI	2	1	True	red	600	[ 90 570 405 675]	[1350 1830  405  675]
10.487	0.2	4796337	4796572	BlankScreen	ANTI	2	1	True	red	600	[ 90 570 405 675]	[1350 1830  405  675]
10.722	1.0	4796572	4797613	ELCue	ANTI	2	1	True	red	600	[ 90 570 405 675]	[1350 1830  405  675]
12.167	2.0	4798017	4800658	ShowFixation	ANTI	3	1	True	red	460	[405 885 405 675]	[1035 1515  405  675]
14.808	0.2	4800658	4800893	BlankScreen	ANTI	3	1	True	red	460	[405 885 405 675]	[1035 1515  405  675]
15.043	1.0	4800893	4801934	ELCue	ANTI	3	1	True	red	460	[405 885 405 675]	[1035 1515  405  675]
16.489	6.0	4802339	4808962	ShowFixation	VGS	4	1	True	lime	460	[1035 1515  405  675]	[405 885 405 675]
23.113	0.2	4808963	4809201	BlankScreen	VGS	4	1	True	lime	460	[1035 1515  405  675]	[405 885 405 675]
23.351	1.0	4809201	4810242	ELCue	VGS	4	1	True	lime	460	[1035 1515  405  675]	[405 885 405 675]
24.796	2.0	4810646	4813270	ShowFixation	ANTI	5	1	True	red	40	[1350 1830  405  675]	[ 90 570 405 675]
27.42	0.2	4813270	4813489	BlankScreen	ANTI	5	1	True	red	40	[1350 1830  405  675]	[ 90 570 405 675]
27.639	1.0	4813489	4814513	ELCue	ANTI	5	1	True	red	40	[1350 1830  405  675]	[ 90 570 405 675]
29.066	2.0	4814916	4817558	ShowFixation	ANTI	6	1	True	red	180	[1035 1515  405  675]	[405 885 405 675]
31.709	0.2	4817559	4817794	BlankScreen	ANTI	6	1	True	red	180	[1035 1515  405  675]	[405 885 405 675]
31.944	1.0	4817794	4818834	ELCue	ANTI	6	1	True	red	180	[1035 1515  405  675]	[405 885 405 675]
33.366	6.0	4819216	4825863	ShowFixation	ANTI	7	1	True	red	600	[ 90 570 405 675]	[1350 1830  405  675]
40.013	0.2	4825863	4826102	BlankScreen	ANTI	7	1	True	red	600	[ 90 570 405 675]	[1350 1830  405  675]
40.252	1.0	4826102	4827142	ELCue	ANTI	7	1	True	red	600	[ 90 570 405 675]	[1350 1830  405  675]
41.697	6.0	4827547	4834171	ShowFixation	VGS	8	1	True	lime	180	[405 885 405 675]	[1035 1515  405  675]
48.321	0.2	4834171	4834411	BlankScreen	VGS	8	1	True	lime	180	[405 885 405 675]	[1035 1515  405  675]
48.561	1.0	4834411	4835451	ELCue	VGS	8	1	True	lime	180	[405 885 405 675]	[1035 1515  405  675]
50.005	6.0	4835855	4842496	ShowFixation	VGS	9	1	True	lime	40	[ 90 570 405 675]	[1350 1830  405  675]
56.646	0.2	4842496	4842735	BlankScreen	VGS	9	1	True	lime	40	[ 90 570 405 675]	[1350 1830  405  675]
56.885	1.0	4842735	4843775	ELCue	VGS	9	1	True	lime	40	[ 90 570 405 675]	[1350 1830  405  675]
58.332	2.0	4844182	4846804	ShowFixation	VGS	10	1	True	lime	600	[1350 1830  405  675]	[ 90 570 405 675]
60.954	0.2	4846804	4847023	BlankScreen	VGS	10	1	True	lime	600	[1350 1830  405  675]	[ 90 570 405 675]
61.173	1.0	4847023	4848046	ELCue	VGS	10	1	True	lime	600	[1350 1830  405  675]	[ 90 570 405 675]
62.67	6.0	4848520	4855092	ShowFixation	ANTI	11	1	True	red	460	[405 885 405 675]	[1035 1515  405  675]
69.242	0.2	4855092	4855331	BlankScreen	ANTI	11	1	True	red	460	[405 885 405 675]	[1035 1515  405  675]
69.481	1.0	4855331	4856368	ELCue	ANTI	11	1	True	red	460	[405 885 405 675]	[1035 1515  405  675]
70.919	2.0	4856769	4859417	ShowFixation	VGS	12	1	True	lime	460	[1035 1515  405  675]	[405 885 405 675]
73.567	0.2	4859417	4859652	BlankScreen	VGS	12	1	True	lime	460	[1035 1515  405  675]	[405 885 405 675]
73.802	1.0	4859652	4860693	ELCue	VGS	12	1	True	lime	460	[1035 1515  405  675]	[405 885 405 675]
75.248	6.0	4861098	4867738	ShowFixation	ANTI	13	1	True	red	40	[1350 1830  405  675]	[ 90 570 405 675]
81.888	0.2	4867738	4867977	BlankScreen	ANTI	13	1	True	red	40	[1350 1830  405  675]	[ 90 570 405 675]
82.127	1.0	4867977	4869017	ELCue	ANTI	13	1	True	red	40	[1350 1830  405  675]	[ 90 570 405 675]
83.573	6.0	4869423	4876046	ShowFixation	VGS	14	1	True	lime	600	[1350 1830  405  675]	[ 90 570 405 675]
90.196	0.2	4876046	4876285	BlankScreen	VGS	14	1	True	lime	600	[1350 1830  405  675]	[ 90 570 405 675]
90.435	1.0	4876285	4877325	ELCue	VGS	14	1	True	lime	600	[1350 1830  405  675]	[ 90 570 405 675]
91.881	2.0	4877731	4880354	ShowFixation	VGS	15	1	True	lime	40	[ 90 570 405 675]	[1350 1830  405  675]
94.504	0.2	4880354	4880573	BlankScreen	VGS	15	1	True	lime	40	[ 90 570 405 675]	[1350 1830  405  675]
94.723	1.0	4880573	4881596	ELCue	VGS	15	1	True	lime	40	[ 90 570 405 675]	[1350 1830  405  675]
96.146	2.0	4881996	4884642	ShowFixation	VGS	16	1	True	lime	180	[405 885 405 675]	[1035 1515  405  675]
98.792	0.2	4884642	4884877	BlankScreen	VGS	16	1	True	lime	180	[405 885 405 675]	[1035 1515  405  675]
99.027	1.0	4884877	4885918	ELCue	VGS	16	1	True	lime	180	[405 885 405 675]	[1035 1515  405  675]
118.979	2.0	4904829	4906864	ShowFixation	ANTI	17	2	False	red	180	[1035 1515  405  675]	[405 885 405 675]
121.014	0.2	4906864	4907099	BlankScreen	ANTI	17	2	False	red	180	[1035 1515  405  675]	[405 885 405 675]
121.249	1.0	4907099	4908099	ELCue	ANTI	17	2	False	red	180	[1035 1515  405  675]	[405 885 405 675]
122.745	2.0	4908595	4910634	ShowFixation	ANTI	18	2	False	red	460	[405 885 405 675]	[1035 1515  405  675]
124.784	0.2	4910634	4910869	BlankScreen	ANTI	18	2	False	red	460	[405 885 405 675]	[1035 1515  405  675]
125.019	1.0	4910869	4911869	ELCue	ANTI	18	2	False	red	460	[405 885 405 675]	[1035 1515  405  675]
126.429	2.0	4912279	4914304	ShowFixation	VGS	19	2	False	lime	600	[1350 1830  405  675]	[ 90 570 405 675]
128.454	0.2	4914304	4914540	BlankScreen	VGS	19	2	False	lime	600	[1350 1830  405  675]	[ 90 570 405 675]
128.69	1.0	4914540	4915540	ELCue	VGS	19	2	False	lime	600	[1350 1830  405  675]	[ 90 570 405 675]
130.081	2.0	4915931	4917958	ShowFixation	ANTI	20	2	False	red	40	[1350 1830  405  675]	[ 90 570 405 675]
132.108	0.2	4917958	4918193	BlankScreen	ANTI	20	2	False	red	40	[1350 1830  405  675]	[ 90 570 405 675]
132.343	1.0	4918193	4919193	ELCue	ANTI	20	2	False	red	40	[1350 1830  405  675]	[ 90 570 405 675]
133.753	6.0	4919603	4925628	ShowFixation	VGS	21	2	False	lime	600	[1350 1830  405  675]	[ 90 570 405 675]
139.778	0.2	4925628	4925868	BlankScreen	VGS	21	2	False	lime	600	[1350 1830  405  675]	[ 90 570 405 675]
140.018	1.0	4925868	4926868	ELCue	VGS	21	2	False	lime	600	[1350 1830  405  675]	[ 90 570 405 675]
141.43	6.0	4927280	4933319	ShowFixation	ANTI	22	2	False	red	600	[ 90 570 405 675]	[1350 1830  405  675]
147.469	0.2	4933319	4933559	BlankScreen	ANTI	22	2	False	red	600	[ 90 570 405 675]	[1350 1830  405  675]
147.709	1.0	4933559	4934559	ELCue	ANTI	22	2	False	red	600	[ 90 570 405 675]	[1350 1830  405  675]
149.117	2.0	4934967	4936993	ShowFixation	ANTI	23	2	False	red	180	[1035 1515  405  675]	[405 885 405 675]
151.143	0.2	4936993	4937229	BlankScreen	ANTI	23	2	False	red	180	[1035 1515  405  675]	[405 885 405 675]
151.379	1.0	4937229	4938229	ELCue	ANTI	23	2	False	red	180	[1035 1515  405  675]	[405 885 405 675]
152.789	6.0	4938639	4944665	ShowFixation	VGS	24	2	False	lime	180	[405 885 405 675]	[1035 1515  405  675]
158.815	0.2	4944665	4944904	BlankScreen	VGS	24	2	False	lime	180	[405 885 405 675]	[1035 1515  405  675]
159.054	1.0	4944904	4945904	ELCue	VGS	24	2	False	lime	180	[405 885 405 675]	[1035 1515  405  675]
160.465	6.0	4946315	4952356	ShowFixation	VGS	25	2	False	lime	40	[ 90 570 405 675]	[1350 1830  405  675]
166.506	0.2	4952356	4952595	BlankScreen	VGS	25	2	False	lime	40	[ 90 570 405 675]	[1350 1830  405  675]
166.745	1.0	4952595	4953595	ELCue	VGS	25	2	False	lime	40	[ 90 570 405 675]	[1350 1830  405  675]
168.156	2.0	4954006	4956047	ShowFixation	VGS	26	2	False	lime	40	[ 90 570 405 675]	[1350 1830  405  675]
170.197	0.2	4956047	4956282	BlankScreen	VGS	26	2	False	lime	40	[ 90 570 405 675]	[1350 1830  405  675]
170.432	1.0	4956282	4957282	ELCue	VGS	26	2	False	lime	40	[ 90 570 405 675]	[1350 1830  405  675]
171.826	6.0	4957676	4963717	ShowFixation	ANTI	27	2	False	red	600	[ 90 570 405 675]	[1350 1830  405  675]
177.867	0.2	4963717	4963956	BlankScreen	ANTI	27	2	False	red	600	[ 90 570 405 675]	[1350 1830  405  675]
178.106	1.0	4963956	4964956	ELCue	ANTI	27	2	False	red	600	[ 90 570 405 675]	[1350 1830  405  675]
179.48	6.0	4965330	4971358	ShowFixation	ANTI	28	2	False	red	460	[405 885 405 675]	[1035 1515  405  675]
185.508	0.2	4971358	4971597	BlankScreen	ANTI	28	2	False	red	460	[405 885 405 675]	[1035 1515  405  675]
185.747	1.0	4971597	4972597	ELCue	ANTI	28	2	False	red	460	[405 885 405 675]	[1035 1515  405  675]
187.156	6.0	4973006	4979032	ShowFixation	ANTI	29	2	False	red	180	[1035 1515  405  675]	[405 885 405 675]
193.182	0.2	4979032	4979271	BlankScreen	ANTI	29	2	False	red	180	[1035 1515  405  675]	[405 885 405 675]
193.421	1.0	4979271	4980271	ELCue	ANTI	29	2	False	red	180	[1035 1515  405  675]	[405 885 405 675]
194.831	2.0	4980681	4982706	ShowFixation	VGS	30	2	False	lime	460	[1035 1515  405  675]	[405 885 405 675]
196.856	0.2	4982706	4982942	BlankScreen	VGS	30	2	False	lime	460	[1035 1515  405  675]	[405 885 405 675]
197.092	1.0	4982942	4983942	ELCue	VGS	30	2	False	lime	460	[1035 1515  405  675]	[405 885 405 675]
198.478	2.0	4984328	4986360	ShowFixation	ANTI	31	2	False	red	600	[ 90 570 405 675]	[1350 1830  405  675]
200.51	0.2	4986360	4986595	BlankScreen	ANTI	31	2	False	red	600	[ 90 570 405 675]	[1350 1830  405  675]
200.745	1.0	4986595	4987595	ELCue	ANTI	31	2	False	red	600	[ 90 570 405 675]	[1350 1830  405  675]
202.16	2.0	4988010	4990047	ShowFixation	ANTI	32	2	False	red	460	[405 885 405 675]	[1035 1515  405  675]
204.197	0.2	4990047	4990282	BlankScreen	ANTI	32	2	False	red	460	[405 885 405 675]	[1035 1515  405  675]
204.432	1.0	4990282	4991282	ELCue	ANTI	32	2	False	red	460	[405 885 405 675]	[1035 1515  405  675]
205.838	6.0	4991688	4997717	ShowFixation	ANTI	33	2	False	red	460	[405 885 405 675]	[1035 1515  405  675]
211.867	0.2	4997717	4997956	BlankScreen	ANTI	33	2	False	red	460	[405 885 405 675]	[1035 1515  405  675]
212.106	1.0	4997956	4998956	ELCue	ANTI	33	2	False	red	460	[405 885 405 675]	[1035 1515  405  675]
213.508	2.0	4999358	5001391	ShowFixation	VGS	34	2	False	lime	180	[405 885 405 675]	[1035 1515  405  675]
215.541	0.2	5001391	5001627	BlankScreen	VGS	34	2	False	lime	180	[405 885 405 675]	[1035 1515  405  675]
215.777	1.0	5001627	5002627	ELCue	VGS	34	2	False	lime	180	[405 885 405 675]	[1035 1515  405  675]
217.186	6.0	5003036	5009062	ShowFixation	VGS	35	2	False	lime	180	[405 885 405 675]	[1035 1515  405  675]
223.212	0.2	5009062	5009301	BlankScreen	VGS	35	2	False	lime	180	[405 885 405 675]	[1035 1515  405  675]
223.451	1.0	5009301	5010301	ELCue	VGS	35	2	False	lime	180	[405 885 405 675]	[1035 1515  405  675]
224.861	6.0	5010711	5016736	ShowFixation	VGS	36	2	False	lime	460	[1035 1515  405  675]	[405 885 405 675]
230.886	0.2	5016736	5016975	BlankScreen	VGS	36	2	False	lime	460	[1035 1515  405  675]	[405 885 405 675]
231.125	1.0	5016975	5017975	ELCue	VGS	36	2	False	lime	460	[1035 1515  405  675]	[405 885 405 675]
232.515	6.0	5018365	5024394	ShowFixation	ANTI	37	2	False	red	40	[1350 1830  405  675]	[ 90 570 405 675]
238.544	0.2	5024394	5024633	BlankScreen	ANTI	37	2	False	red	40	[1350 1830  405  675]	[ 90 570 405 675]
238.783	1.0	5024633	5025633	ELCue	ANTI	37	2	False	red	40	[1350 1830  405  675]	[ 90 570 405 675]
240.188	6.0	5026038	5032068	ShowFixation	VGS	38	2	False	lime	40	[ 90 570 405 675]	[1350 1830  405  675]
246.218	0.2	5032068	5032307	BlankScreen	VGS	38	2	False	lime	40	[ 90 570 405 675]	[1350 1830  405  675]
246.457	1.0	5032307	5033307	ELCue	VGS	38	2	False	lime	40	[ 90 570 405 675]	[1350 1830  405  675]
247.865	2.0	5033715	5035742	ShowFixation	VGS	39	2	False	lime	180	[405 885 405 675]	[1035 1515  405  675]
249.892	0.2	5035742	5035977	BlankScreen	VGS	39	2	False	lime	180	[405 885 405 675]	[1035 1515  405  675]
250.127	1.0	5035977	5036977	ELCue	VGS	39	2	False	lime	180	[405 885 405 675]	[1035 1515  405  675]
251.499	2.0	5037349	5039379	ShowFixation	VGS	40	2	False	lime	600	[1350 1830  405  675]	[ 90 570 405 675]
253.529	0.2	5039379	5039614	BlankScreen	VGS	40	2	False	lime	600	[1350 1830  405  675]	[ 90 570 405 675]
253.764	1.0	5039614	5040614	ELCue	VGS	40	2	False	lime	600	[1350 1830  405  675]	[ 90 570 405 675]
255.171	6.0	5041021	5047049	ShowFixation	VGS	41	2	False	lime	460	[1035 1515  405  675]	[405 885 405 675]
261.199	0.2	5047049	5047289	BlankScreen	VGS	41	2	False	lime	460	[1035 1515  405  675]	[405 885 405 675]
261.439	1.0	5047289	5048289	ELCue	VGS	41	2	False	lime	460	[1035 1515  405  675]	[405 885 405 675]
262.83	2.0	5048680	5050707	ShowFixation	ANTI	42	2	False	red	40	[1350 1830  405  675]	[ 90 570 405 675]
264.857	0.2	5050707	5050942	BlankScreen	ANTI	42	2	False	red	40	[1350 1830  405  675]	[ 90 570 405 675]
265.092	1.0	5050942	5051942	ELCue	ANTI	42	2	False	red	40	[1350 1830  405  675]	[ 90 570 405 675]
266.506	2.0	5052356	5054394	ShowFixation	VGS	43	2	False	lime	460	[1035 1515  405  675]	[405 885 405 675]
268.544	0.2	5054394	5054629	BlankScreen	VGS	43	2	False	lime	460	[1035 1515  405  675]	[405 885 405 675]
268.779	1.0	5054629	5055629	ELCue	VGS	43	2	False	lime	460	[1035 1515  405  675]	[405 885 405 675]
270.189	2.0	5056039	5058064	ShowFixation	VGS	44	2	False	lime	40	[ 90 570 405 675]	[1350 1830  405  675]
272.214	0.2	5058064	5058299	BlankScreen	VGS	44	2	False	lime	40	[ 90 570 405 675]	[1350 1830  405  675]
272.449	1.0	5058299	5059299	ELCue	VGS	44	2	False	lime	40	[ 90 570 405 675]	[1350 1830  405  675]
273.858	6.0	5059708	5065734	ShowFixation	VGS	45	2	False	lime	600	[1350 1830  405  675]	[ 90 570 405 675]
279.885	0.2	5065735	5065974	BlankScreen	VGS	45	2	False	lime	600	[1350 1830  405  675]	[ 90 570 405 675]
280.124	1.0	5065974	5066974	ELCue	VGS	45	2	False	lime	600	[1350 1830  405  675]	[ 90 570 405 675]
281.527	2.0	5067377	5069409	ShowFixation	ANTI	46	2	False	red	600	[ 90 570 405 675]	[1350 1830  405  675]
283.559	0.2	5069409	5069644	BlankScreen	ANTI	46	2	False	red	600	[ 90 570 405 675]	[1350 1830  405  675]
283.794	1.0	5069644	5070644	ELCue	ANTI	46	2	False	red	600	[ 90 570 405 675]	[1350 1830  405  675]
285.198	6.0	5071048	5077080	ShowFixation	ANTI	47	2	False	red	40	[1350 1830  405  675]	[ 90 570 405 675]
291.23	0.2	5077080	5077319	BlankScreen	ANTI	47	2	False	red	40	[1350 1830  405  675]	[ 90 570 405 675]
291.469	1.0	5077319	5078319	ELCue	ANTI	47	2	False	red	40	[1350 1830  405  675]	[ 90 570 405 675]
292.879	6.0	5078729	5084754	ShowFixation	ANTI	48	2	False	red	180	[1035 1515  405  675]	[405 885 405 675]
298.904	0.2	5084754	5084993	BlankScreen	ANTI	48	2	False	red	180	[1035 1515  405  675]	[405 885 405 675]
299.143	1.0	5084993	5085993	ELCue	ANTI	48	2	False	red	180	[1035 1515  405  675]	[405 885 405 675]
330.964	6.0	5116814	5122842	ShowFixation	VGS	49	3	False	lime	460	[1035 1515  405  675]	[405 885 405 675]
336.992	0.2	5122842	5123081	BlankScreen	VGS	49	3	False	lime	460	[1035 1515  405  675]	[405 885 405 675]
337.231	1.0	5123081	5124081	ELCue	VGS	49	3	False	lime	460	[1035 1515  405  675]	[405 885 405 675]
338.647	2.0	5124497	5126533	ShowFixation	ANTI	50	3	False	red	180	[1035 1515  405  675]	[405 885 405 675]
340.683	0.2	5126533	5126768	BlankScreen	ANTI	50	3	False	red	180	[1035 1515  405  675]	[405 885 405 675]
340.918	1.0	5126768	5127768	ELCue	ANTI	50	3	False	red	180	[1035 1515  405  675]	[405 885 405 675]
342.302	2.0	5128152	5130186	ShowFixation	ANTI	51	3	False	red	40	[1350 1830  405  675]	[ 90 570 405 675]
344.336	0.2	5130186	5130422	BlankScreen	ANTI	51	3	False	red	40	[1350 1830  405  675]	[ 90 570 405 675]
344.572	1.0	5130422	5131422	ELCue	ANTI	51	3	False	red	40	[1350 1830  405  675]	[ 90 570 405 675]
345.984	6.0	5131834	5137873	ShowFixation	ANTI	52	3	False	red	40	[1350 1830  405  675]	[ 90 570 405 675]
352.023	0.2	5137873	5138113	BlankScreen	ANTI	52	3	False	red	40	[1350 1830  405  675]	[ 90 570 405 675]
352.263	1.0	5138113	5139113	ELCue	ANTI	52	3	False	red	40	[1350 1830  405  675]	[ 90 570 405 675]
353.668	2.0	5139518	5141548	ShowFixation	ANTI	53	3	False	red	180	[1035 1515  405  675]	[405 885 405 675]
355.698	0.2	5141548	5141783	BlankScreen	ANTI	53	3	False	red	180	[1035 1515  405  675]	[405 885 405 675]
355.933	1.0	5141783	5142783	ELCue	ANTI	53	3	False	red	180	[1035 1515  405  675]	[405 885 405 675]
357.338	2.0	5143188	5145218	ShowFixation	VGS	54	3	False	lime	460	[1035 1515  405  675]	[405 885 405 675]
359.368	0.2	5145218	5145453	BlankScreen	VGS	54	3	False	lime	460	[1035 1515  405  675]	[405 885 405 675]
359.603	1.0	5145453	5146453	ELCue	VGS	54	3	False	lime	460	[1035 1515  405  675]	[405 885 405 675]
361.006	6.0	5146856	5152888	ShowFixation	VGS	55	3	False	lime	460	[1035 1515  405  675]	[405 885 405 675]
367.038	0.2	5152888	5153127	BlankScreen	VGS	55	3	False	lime	460	[1035 1515  405  675]	[405 885 405 675]
367.277	1.0	5153127	5154127	ELCue	VGS	55	3	False	lime	460	[1035 1515  405  675]	[405 885 405 675]
368.678	2.0	5154528	5156562	ShowFixation	ANTI	56	3	False	red	600	[ 90 570 405 675]	[1350 1830  405  675]
370.712	0.2	5156562	5156798	BlankScreen	ANTI	56	3	False	red	600	[ 90 570 405 675]	[1350 1830  405  675]
370.948	1.0	5156798	5157798	ELCue	ANTI	56	3	False	red	600	[ 90 570 405 675]	[1350 1830  405  675]
372.338	6.0	5158188	5164216	ShowFixation	ANTI	57	3	False	red	180	[1035 1515  405  675]	[405 885 405 675]
378.366	0.2	5164216	5164455	BlankScreen	ANTI	57	3	False	red	180	[1035 1515  405  675]	[405 885 405 675]
378.605	1.0	5164455	5165455	ELCue	ANTI	57	3	False	red	180	[1035 1515  405  675]	[405 885 405 675]
380.011	2.0	5165861	5167890	ShowFixation	VGS	58	3	False	lime	460	[1035 1515  405  675]	[405 885 405 675]
382.04	0.2	5167890	5168126	BlankScreen	VGS	58	3	False	lime	460	[1035 1515  405  675]	[405 885 405 675]
382.276	1.0	5168126	5169126	ELCue	VGS	58	3	False	lime	460	[1035 1515  405  675]	[405 885 405 675]
383.687	6.0	5169537	5175577	ShowFixation	ANTI	59	3	False	red	180	[1035 1515  405  675]	[405 885 405 675]
389.727	0.2	5175577	5175817	BlankScreen	ANTI	59	3	False	red	180	[1035 1515  405  675]	[405 885 405 675]
389.967	1.0	5175817	5176817	ELCue	ANTI	59	3	False	red	180	[1035 1515  405  675]	[405 885 405 675]
391.376	6.0	5177226	5183251	ShowFixation	VGS	60	3	False	lime	600	[1350 1830  405  675]	[ 90 570 405 675]
397.401	0.2	5183251	5183491	BlankScreen	VGS	60	3	False	lime	600	[1350 1830  405  675]	[ 90 570 405 675]
397.641	1.0	5183491	5184491	ELCue	VGS	60	3	False	lime	600	[1350 1830  405  675]	[ 90 570 405 675]
399.037	6.0	5184887	5190926	ShowFixation	VGS	61	3	False	lime	600	[1350 1830  405  675]	[ 90 570 405 675]
405.076	0.2	5190926	5191165	BlankScreen	VGS	61	3	False	lime	600	[1350 1830  405  675]	[ 90 570 405 675]
405.315	1.0	5191165	5192165	ELCue	VGS	61	3	False	lime	600	[1350 1830  405  675]	[ 90 570 405 675]
406.723	2.0	5192573	5194600	ShowFixation	ANTI	62	3	False	red	40	[1350 1830  405  675]	[ 90 570 405 675]
408.75	0.2	5194600	5194835	BlankScreen	ANTI	62	3	False	red	40	[1350 1830  405  675]	[ 90 570 405 675]
408.985	1.0	5194835	5195835	ELCue	ANTI	62	3	False	red	40	[1350 1830  405  675]	[ 90 570 405 675]
410.394	6.0	5196244	5202270	ShowFixation	VGS	63	3	False	lime	180	[405 885 405 675]	[1035 1515  405  675]
416.421	0.2	5202271	5202511	BlankScreen	VGS	63	3	False	lime	180	[405 885 405 675]	[1035 1515  405  675]
416.661	1.0	5202511	5203511	ELCue	VGS	63	3	False	lime	180	[405 885 405 675]	[1035 1515  405  675]
418.062	6.0	5203912	5209945	ShowFixation	VGS	64	3	False	lime	40	[ 90 570 405 675]	[1350 1830  405  675]
424.096	0.2	5209946	5210185	BlankScreen	VGS	64	3	False	lime	40	[ 90 570 405 675]	[1350 1830  405  675]
424.335	1.0	5210185	5211185	ELCue	VGS	64	3	False	lime	40	[ 90 570 405 675]	[1350 1830  405  675]
425.738	2.0	5211588	5213619	ShowFixation	ANTI	65	3	False	red	460	[405 885 405 675]	[1035 1515  405  675]
427.769	0.2	5213619	5213855	BlankScreen	ANTI	65	3	False	red	460	[405 885 405 675]	[1035 1515  405  675]
428.005	1.0	5213855	5214855	ELCue	ANTI	65	3	False	red	460	[405 885 405 675]	[1035 1515  405  675]
429.414	6.0	5215264	5221290	ShowFixation	ANTI	66	3	False	red	600	[ 90 570 405 675]	[1350 1830  405  675]
435.44	0.2	5221290	5221529	BlankScreen	ANTI	66	3	False	red	600	[ 90 570 405 675]	[1350 1830  405  675]
435.679	1.0	5221529	5222529	ELCue	ANTI	66	3	False	red	600	[ 90 570 405 675]	[1350 1830  405  675]
437.081	2.0	5222931	5224964	ShowFixation	ANTI	67	3	False	red	460	[405 885 405 675]	[1035 1515  405  675]
439.114	0.2	5224964	5225200	BlankScreen	ANTI	67	3	False	red	460	[405 885 405 675]	[1035 1515  405  675]
439.35	1.0	5225200	5226200	ELCue	ANTI	67	3	False	red	460	[405 885 405 675]	[1035 1515  405  675]
440.757	6.0	5226607	5232635	ShowFixation	ANTI	68	3	False	red	600	[ 90 570 405 675]	[1350 1830  405  675]
446.785	0.2	5232635	5232874	BlankScreen	ANTI	68	3	False	red	600	[ 90 570 405 675]	[1350 1830  405  675]
447.024	1.0	5232874	5233874	ELCue	ANTI	68	3	False	red	600	[ 90 570 405 675]	[1350 1830  405  675]
448.43	2.0	5234280	5236309	ShowFixation	VGS	69	3	False	lime	180	[405 885 405 675]	[1035 1515  405  675]
450.459	0.2	5236309	5236544	BlankScreen	VGS	69	3	False	lime	180	[405 885 405 675]	[1035 1515  405  675]
450.694	1.0	5236544	5237544	ELCue	VGS	69	3	False	lime	180	[405 885 405 675]	[1035 1515  405  675]
452.097	6.0	5237947	5243979	ShowFixation	VGS	70	3	False	lime	180	[405 885 405 675]	[1035 1515  405  675]
458.129	0.2	5243979	5244218	BlankScreen	VGS	70	3	False	lime	180	[405 885 405 675]	[1035 1515  405  675]
458.368	1.0	5244218	5245218	ELCue	VGS	70	3	False	lime	180	[405 885 405 675]	[1035 1515  405  675]
459.778	6.0	5245628	5251653	ShowFixation	VGS	71	3	False	lime	40	[ 90 570 405 675]	[1350 1830  405  675]
465.803	0.2	5251653	5251893	BlankScreen	VGS	71	3	False	lime	40	[ 90 570 405 675]	[1350 1830  405  675]
466.043	1.0	5251893	5252893	ELCue	VGS	71	3	False	lime	40	[ 90 570 405 675]	[1350 1830  405  675]
467.447	2.0	5253297	5255328	ShowFixation	ANTI	72	3	False	red	600	[ 90 570 405 675]	[1350 1830  405  675]
469.478	0.2	5255328	5255563	BlankScreen	ANTI	72	3	False	red	600	[ 90 570 405 675]	[1350 1830  405  675]
469.713	1.0	5255563	5256563	ELCue	ANTI	72	3	False	red	600	[ 90 570 405 675]	[1350 1830  405  675]
471.119	6.0	5256969	5262998	ShowFixation	ANTI	73	3	False	red	460	[405 885 405 675]	[1035 1515  405  675]
477.148	0.2	5262998	5263237	BlankScreen	ANTI	73	3	False	red	460	[405 885 405 675]	[1035 1515  405  675]
477.387	1.0	5263237	5264237	ELCue	ANTI	73	3	False	red	460	[405 885 405 675]	[1035 1515  405  675]
478.797	2.0	5264647	5266672	ShowFixation	VGS	74	3	False	lime	180	[405 885 405 675]	[1035 1515  405  675]
480.822	0.2	5266672	5266908	BlankScreen	VGS	74	3	False	lime	180	[405 885 405 675]	[1035 1515  405  675]
481.058	1.0	5266908	5267908	ELCue	VGS	74	3	False	lime	180	[405 885 405 675]	[1035 1515  405  675]
482.462	2.0	5268312	5270342	ShowFixation	VGS	75	3	False	lime	40	[ 90 570 405 675]	[1350 1830  405  675]
484.492	0.2	5270342	5270578	BlankScreen	VGS	75	3	False	lime	40	[ 90 570 405 675]	[1350 1830  405  675]
484.728	1.0	5270578	5271578	ELCue	VGS	75	3	False	lime	40	[ 90 570 405 675]	[1350 1830  405  675]
486.133	6.0	5271983	5278013	ShowFixation	ANTI	76	3	False	red	40	[1350 1830  405  675]	[ 90 570 405 675]
492.163	0.2	5278013	5278252	BlankScreen	ANTI	76	3	False	red	40	[1350 1830  405  675]	[ 90 570 405 675]
492.402	1.0	5278252	5279252	ELCue	ANTI	76	3	False	red	40	[1350 1830  405  675]	[ 90 570 405 675]
493.807	2.0	5279657	5281687	ShowFixation	VGS	77	3	False	lime	600	[1350 1830  405  675]	[ 90 570 405 675]
495.837	0.2	5281687	5281922	BlankScreen	VGS	77	3	False	lime	600	[1350 1830  405  675]	[ 90 570 405 675]
496.072	1.0	5281922	5282922	ELCue	VGS	77	3	False	lime	600	[1350 1830  405  675]	[ 90 570 405 675]
497.474	2.0	5283324	5285357	ShowFixation	VGS	78	3	False	lime	40	[ 90 570 405 675]	[1350 1830  405  675]
499.507	0.2	5285357	5285593	BlankScreen	VGS	78	3	False	lime	40	[ 90 570 405 675]	[1350 1830  405  675]
499.743	1.0	5285593	5286593	ELCue	VGS	78	3	False	lime	40	[ 90 570 405 675]	[1350 1830  405  675]
501.149	2.0	5286999	5289028	ShowFixation	VGS	79	3	False	lime	600	[1350 1830  405  675]	[ 90 570 405 675]
503.178	0.2	5289028	5289263	BlankScreen	VGS	79	3	False	lime	600	[1350 1830  405  675]	[ 90 570 405 675]
503.413	1.0	5289263	5290263	ELCue	VGS	79	3	False	lime	600	[1350 1830  405  675]	[ 90 570 405 675]
504.819	6.0	5290669	5296698	ShowFixation	ANTI	80	3	False	red	460	[405 885 405 675]	[1035 1515  405  675]
510.848	0.2	5296698	5296937	BlankScreen	ANTI	80	3	False	red	460	[405 885 405 675]	[1035 1515  405  675]
511.087	1.0	5296937	5297937	ELCue	ANTI	80	3	False	red	460	[405 885 405 675]	[1035 1515  405  675]
564.794	2.0	5350644	5352675	ShowFixation	VGS	81	4	False	lime	600	[1350 1830  405  675]	[ 90 570 405 675]
566.825	0.2	5352675	5352910	BlankScreen	VGS	81	4	False	lime	600	[1350 1830  405  675]	[ 90 570 405 675]
567.06	1.0	5352910	5353910	ELCue	VGS	81	4	False	lime	600	[1350 1830  405  675]	[ 90 570 405 675]
568.463	6.0	5354313	5360345	ShowFixation	ANTI	82	4	False	red	460	[405 885 405 675]	[1035 1515  405  675]
574.495	0.2	5360345	5360584	BlankScreen	ANTI	82	4	False	red	460	[405 885 405 675]	[1035 1515  405  675]
574.734	1.0	5360584	5361584	ELCue	ANTI	82	4	False	red	460	[405 885 405 675]	[1035 1515  405  675]
576.143	6.0	5361993	5368019	ShowFixation	ANTI	83	4	False	red	460	[405 885 405 675]	[1035 1515  405  675]
582.169	0.2	5368019	5368259	BlankScreen	ANTI	83	4	False	red	460	[405 885 405 675]	[1035 1515  405  675]
582.409	1.0	5368259	5369259	ELCue	ANTI	83	4	False	red	460	[405 885 405 675]	[1035 1515  405  675]
583.816	6.0	5369666	5375694	ShowFixation	VGS	84	4	False	lime	600	[1350 1830  405  675]	[ 90 570 405 675]
589.844	0.2	5375694	5375933	BlankScreen	VGS	84	4	False	lime	600	[1350 1830  405  675]	[ 90 570 405 675]
590.083	1.0	5375933	5376933	ELCue	VGS	84	4	False	lime	600	[1350 1830  405  675]	[ 90 570 405 675]
591.494	2.0	5377344	5379385	ShowFixation	VGS	85	4	False	lime	40	[ 90 570 405 675]	[1350 1830  405  675]
593.535	0.2	5379385	5379620	BlankScreen	VGS	85	4	False	lime	40	[ 90 570 405 675]	[1350 1830  405  675]
593.77	1.0	5379620	5380620	ELCue	VGS	85	4	False	lime	40	[ 90 570 405 675]	[1350 1830  405  675]
595.178	2.0	5381028	5383055	ShowFixation	VGS	86	4	False	lime	460	[1035 1515  405  675]	[405 885 405 675]
597.205	0.2	5383055	5383290	BlankScreen	VGS	86	4	False	lime	460	[1035 1515  405  675]	[405 885 405 675]
597.44	1.0	5383290	5384290	ELCue	VGS	86	4	False	lime	460	[1035 1515  405  675]	[405 885 405 675]
598.848	2.0	5384698	5386725	ShowFixation	VGS	87	4	False	lime	40	[ 90 570 405 675]	[1350 1830  405  675]
600.875	0.2	5386725	5386960	BlankScreen	VGS	87	4	False	lime	40	[ 90 570 405 675]	[1350 1830  405  675]
601.11	1.0	5386960	5387960	ELCue	VGS	87	4	False	lime	40	[ 90 570 405 675]	[1350 1830  405  675]
602.518	2.0	5388368	5390395	ShowFixation	ANTI	88	4	False	red	180	[1035 1515  405  675]	[405 885 405 675]
604.545	0.2	5390395	5390631	BlankScreen	ANTI	88	4	False	red	180	[1035 1515  405  675]	[405 885 405 675]
604.781	1.0	5390631	5391631	ELCue	ANTI	88	4	False	red	180	[1035 1515  405  675]	[405 885 405 675]
606.192	2.0	5392042	5394082	ShowFixation	ANTI	89	4	False	red	460	[405 885 405 675]	[1035 1515  405  675]
608.232	0.2	5394082	5394318	BlankScreen	ANTI	89	4	False	red	460	[405 885 405 675]	[1035 1515  405  675]
608.468	1.0	5394318	5395318	ELCue	ANTI	89	4	False	red	460	[405 885 405 675]	[1035 1515  405  675]
609.875	6.0	5395725	5401753	ShowFixation	ANTI	90	4	False	red	600	[ 90 570 405 675]	[1350 1830  405  675]
615.903	0.2	5401753	5401992	BlankScreen	ANTI	90	4	False	red	600	[ 90 570 405 675]	[1350 1830  405  675]
616.142	1.0	5401992	5402992	ELCue	ANTI	90	4	False	red	600	[ 90 570 405 675]	[1350 1830  405  675]
617.548	6.0	5403398	5409427	ShowFixation	VGS	91	4	False	lime	40	[ 90 570 405 675]	[1350 1830  405  675]
623.577	0.2	5409427	5409666	BlankScreen	VGS	91	4	False	lime	40	[ 90 570 405 675]	[1350 1830  405  675]
623.816	1.0	5409666	5410666	ELCue	VGS	91	4	False	lime	40	[ 90 570 405 675]	[1350 1830  405  675]
625.223	2.0	5411073	5413101	ShowFixation	ANTI	92	4	False	red	40	[1350 1830  405  675]	[ 90 570 405 675]
627.251	0.2	5413101	5413336	BlankScreen	ANTI	92	4	False	red	40	[1350 1830  405  675]	[ 90 570 405 675]
627.486	1.0	5413336	5414336	ELCue	ANTI	92	4	False	red	40	[1350 1830  405  675]	[ 90 570 405 675]
628.895	6.0	5414745	5420771	ShowFixation	ANTI	93	4	False	red	40	[1350 1830  405  675]	[ 90 570 405 675]
634.921	0.2	5420771	5421011	BlankScreen	ANTI	93	4	False	red	40	[1350 1830  405  675]	[ 90 570 405 675]
635.161	1.0	5421011	5422011	ELCue	ANTI	93	4	False	red	40	[1350 1830  405  675]	[ 90 570 405 675]
636.568	6.0	5422418	5428446	ShowFixation	VGS	94	4	False	lime	460	[1035 1515  405  675]	[405 885 405 675]
642.596	0.2	5428446	5428685	BlankScreen	VGS	94	4	False	lime	460	[1035 1515  405  675]	[405 885 405 675]
642.835	1.0	5428685	5429685	ELCue	VGS	94	4	False	lime	460	[1035 1515  405  675]	[405 885 405 675]
644.246	2.0	5430096	5432137	ShowFixation	VGS	95	4	False	lime	180	[405 885 405 675]	[1035 1515  405  675]
646.287	0.2	5432137	5432372	BlankScreen	VGS	95	4	False	lime	180	[405 885 405 675]	[1035 1515  405  675]
646.522	1.0	5432372	5433372	ELCue	VGS	95	4	False	lime	180	[405 885 405 675]	[1035 1515  405  675]
647.933	6.0	5433783	5439807	ShowFixation	VGS	96	4	False	lime	40	[ 90 570 405 675]	[1350 1830  405  675]
653.957	0.2	5439807	5440046	BlankScreen	VGS	96	4	False	lime	40	[ 90 570 405 675]	[1350 1830  405  675]
654.196	1.0	5440046	5441046	ELCue	VGS	96	4	False	lime	40	[ 90 570 405 675]	[1350 1830  405  675]
655.607	6.0	5441457	5447481	ShowFixation	VGS	97	4	False	lime	600	[1350 1830  405  675]	[ 90 570 405 675]
661.631	0.2	5447481	5447720	BlankScreen	VGS	97	4	False	lime	600	[1350 1830  405  675]	[ 90 570 405 675]
661.87	1.0	5447720	5448720	ELCue	VGS	97	4	False	lime	600	[1350 1830  405  675]	[ 90 570 405 675]
663.278	6.0	5449128	5455155	ShowFixation	ANTI	98	4	False	red	180	[1035 1515  405  675]	[405 885 405 675]
669.305	0.2	5455155	5455395	BlankScreen	ANTI	98	4	False	red	180	[1035 1515  405  675]	[405 885 405 675]
669.545	1.0	5455395	5456395	ELCue	ANTI	98	4	False	red	180	[1035 1515  405  675]	[405 885 405 675]
670.955	6.0	5456805	5462830	ShowFixation	VGS	99	4	False	lime	180	[405 885 405 675]	[1035 1515  405  675]
676.98	0.2	5462830	5463069	BlankScreen	VGS	99	4	False	lime	180	[405 885 405 675]	[1035 1515  405  675]
677.22	1.0	5463070	5464070	ELCue	VGS	99	4	False	lime	180	[405 885 405 675]	[1035 1515  405  675]
678.629	2.0	5464479	5466504	ShowFixation	VGS	100	4	False	lime	460	[1035 1515  405  675]	[405 885 405 675]
680.654	0.2	5466504	5466739	BlankScreen	VGS	100	4	False	lime	460	[1035 1515  405  675]	[405 885 405 675]
680.89	1.0	5466740	5467740	ELCue	VGS	100	4	False	lime	460	[1035 1515  405  675]	[405 885 405 675]
682.298	6.0	5468148	5474174	ShowFixation	ANTI	101	4	False	red	40	[1350 1830  405  675]	[ 90 570 405 675]
688.325	0.2	5474175	5474414	BlankScreen	ANTI	101	4	False	red	40	[1350 1830  405  675]	[ 90 570 405 675]
688.565	1.0	5474415	5475415	ELCue	ANTI	101	4	False	red	40	[1350 1830  405  675]	[ 90 570 405 675]
689.975	2.0	5475825	5477866	ShowFixation	ANTI	102	4	False	red	600	[ 90 570 405 675]	[1350 1830  405  675]
692.016	0.2	5477866	5478101	BlankScreen	ANTI	102	4	False	red	600	[ 90 570 405 675]	[1350 1830  405  675]
692.251	1.0	5478101	5479101	ELCue	ANTI	102	4	False	red	600	[ 90 570 405 675]	[1350 1830  405  675]
693.658	6.0	5479508	5485536	ShowFixation	VGS	103	4	False	lime	460	[1035 1515  405  675]	[405 885 405 675]
699.686	0.2	5485536	5485776	BlankScreen	VGS	103	4	False	lime	460	[1035 1515  405  675]	[405 885 405 675]
699.926	1.0	5485776	5486776	ELCue	VGS	103	4	False	lime	460	[1035 1515  405  675]	[405 885 405 675]
701.335	2.0	5487185	5489211	ShowFixation	ANTI	104	4	False	red	180	[1035 1515  405  675]	[405 885 405 675]
703.361	0.2	5489211	5489446	BlankScreen	ANTI	104	4	False	red	180	[1035 1515  405  675]	[405 885 405 675]
703.596	1.0	5489446	5490446	ELCue	ANTI	104	4	False	red	180	[1035 1515  405  675]	[405 885 405 675]
705.007	2.0	5490857	5492898	ShowFixation	ANTI	105	4	False	red	460	[405 885 405 675]	[1035 1515  405  675]
707.048	0.2	5492898	5493133	BlankScreen	ANTI	105	4	False	red	460	[405 885 405 675]	[1035 1515  405  675]
707.283	1.0	5493133	5494133	ELCue	ANTI	105	4	False	red	460	[405 885 405 675]	[1035 1515  405  675]
708.694	2.0	5494544	5496585	ShowFixation	VGS	106	4	False	lime	600	[1350 1830  405  675]	[ 90 570 405 675]
710.735	0.2	5496585	5496820	BlankScreen	VGS	106	4	False	lime	600	[1350 1830  405  675]	[ 90 570 405 675]
710.97	1.0	5496820	5497820	ELCue	VGS	106	4	False	lime	600	[1350 1830  405  675]	[ 90 570 405 675]
712.378	2.0	5498228	5500255	ShowFixation	ANTI	107	4	False	red	40	[1350 1830  405  675]	[ 90 570 405 675]
714.405	0.2	5500255	5500490	BlankScreen	ANTI	107	4	False	red	40	[1350 1830  405  675]	[ 90 570 405 675]
714.64	1.0	5500490	5501490	ELCue	ANTI	107	4	False	red	40	[1350 1830  405  675]	[ 90 570 405 675]
716.05	6.0	5501900	5507925	ShowFixation	ANTI	108	4	False	red	600	[ 90 570 405 675]	[1350 1830  405  675]
722.075	0.2	5507925	5508164	BlankScreen	ANTI	108	4	False	red	600	[ 90 570 405 675]	[1350 1830  405  675]
722.314	1.0	5508164	5509164	ELCue	ANTI	108	4	False	red	600	[ 90 570 405 675]	[1350 1830  405  675]
723.691	2.0	5509541	5511566	ShowFixation	VGS	109	4	False	lime	180	[405 885 405 675]	[1035 1515  405  675]
725.716	0.2	5511566	5511801	BlankScreen	VGS	109	4	False	lime	180	[405 885 405 675]	[1035 1515  405  675]
725.951	1.0	5511801	5512801	ELCue	VGS	109	4	False	lime	180	[405 885 405 675]	[1035 1515  405  675]
727.362	6.0	5513212	5519253	ShowFixation	VGS	110	4	False	lime	180	[405 885 405 675]	[1035 1515  405  675]
733.403	0.2	5519253	5519492	BlankScreen	VGS	110	4	False	lime	180	[405 885 405 675]	[1035 1515  405  675]
733.642	1.0	5519492	5520492	ELCue	VGS	110	4	False	lime	180	[405 885 405 675]	[1035 1515  405  675]
735.048	6.0	5520898	5526927	ShowFixation	ANTI	111	4	False	red	180	[1035 1515  405  675]	[405 885 405 675]
741.077	0.2	5526927	5527167	BlankScreen	ANTI	111	4	False	red	180	[1035 1515  405  675]	[405 885 405 675]
741.317	1.0	5527167	5528167	ELCue	ANTI	111	4	False	red	180	[1035 1515  405  675]	[405 885 405 675]
742.727	2.0	5528577	5530618	ShowFixation	ANTI	112	4	False	red	600	[ 90 570 405 675]	[1350 1830  405  675]
744.768	0.2	5530618	5530854	BlankScreen	ANTI	112	4	False	red	600	[ 90 570 405 675]	[1350 1830  405  675]
745.004	1.0	5530854	5531854	ELCue	ANTI	112	4	False	red	600	[ 90 570 405 675]	[1350 1830  405  675]
