onset	duration	startTime	stopTime	eventIdentifier	trial_type	trial_number	block_number	is_practice	fixation_color	cue_side	aoi_correct	aoi_incorrect
0.151	2.0	756895	758929	ShowFixation	ANTI	1	1	True	red	180	[1035 1515  405  675]	[405 885 405 675]
2.185	0.2	758929	759164	BlankScreen	ANTI	1	1	True	red	180	[1035 1515  405  675]	[405 885 405 675]
2.42	1.0	759164	760204	ELCue	ANTI	1	1	True	red	180	[1035 1515  405  675]	[405 885 405 675]
3.878	6.0	760622	767250	ShowFixation	ANTI	2	1	True	red	180	[1035 1515  405  675]	[405 885 405 675]
10.506	0.2	767250	767489	BlankScreen	ANTI	2	1	True	red	180	[1035 1515  405  675]	[405 885 405 675]
10.745	1.0	767489	768529	ELCue	ANTI	2	1	True	red	180	[1035 1515  405  675]	[405 885 405 675]
12.187	6.0	768931	775574	ShowFixation	VGS	3	1	True	lime	40	[ 90 570 405 675]	[1350 1830  405  675]
18.83	0.2	775574	775814	BlankScreen	VGS	3	1	True	lime	40	[ 90 570 405 675]	[1350 1830  405  675]
19.07	1.0	775814	776854	ELCue	VGS	3	1	True	lime	40	[ 90 570 405 675]	[1350 1830  405  675]
20.527	6.0	777271	783899	ShowFixation	VGS	4	1	True	lime	460	[1035 1515  405  675]	[405 885 405 675]
27.155	0.2	783899	784139	BlankScreen	VGS	4	1	True	lime	460	[1035 1515  405  675]	[405 885 405 675]
27.395	1.0	784139	785179	ELCue	VGS	4	1	True	lime	460	[1035 1515  405  675]	[405 885 405 675]
28.851	6.0	785595	792224	ShowFixation	VGS	5	1	True	lime	600	[1350 1830  405  675]	[ 90 570 405 675]
35.48	0.2	792224	792464	BlankScreen	VGS	5	1	True	lime	600	[1350 1830  405  675]	[ 90 570 405 675]
35.72	1.0	792464	793504	ELCue	VGS	5	1	True	lime	600	[1350 1830  405  675]	[ 90 570 405 675]
37.176	2.0	793920	796549	ShowFixation	VGS	6	1	True	lime	40	[ 90 570 405 675]	[1350 1830  405  675]
39.805	0.2	796549	796784	BlankScreen	VGS	6	1	True	lime	40	[ 90 570 405 675]	[1350 1830  405  675]
40.04	1.0	796784	797825	ELCue	VGS	6	1	True	lime	40	[ 90 570 405 675]	[1350 1830  405  675]
41.494	6.0	798238	804870	ShowFixation	ANTI	7	1	True	red	40	[1350 1830  405  675]	[ 90 570 405 675]
48.126	0.2	804870	805109	BlankScreen	ANTI	7	1	True	red	40	[1350 1830  405  675]	[ 90 570 405 675]
48.365	1.0	805109	806150	ELCue	ANTI	7	1	True	red	40	[1350 1830  405  675]	[ 90 570 405 675]
49.789	2.0	806533	809195	ShowFixation	VGS	8	1	True	lime	460	[1035 1515  405  675]	[405 885 405 675]
52.451	0.2	809195	809430	BlankScreen	VGS	8	1	True	lime	460	[1035 1515  405  675]	[405 885 405 675]
52.686	1.0	809430	810471	ELCue	VGS	8	1	True	lime	460	[1035 1515  405  675]	[405 885 405 675]
54.146	2.0	810890	813516	ShowFixation	ANTI	9	1	True	red	40	[1350 1830  405  675]	[ 90 570 405 675]
56.772	0.2	813516	813751	BlankScreen	ANTI	9	1	True	red	40	[1350 1830  405  675]	[ 90 570 405 675]
57.007	1.0	813751	814792	ELCue	ANTI	9	1	True	red	40	[1350 1830  405  675]	[ 90 570 405 675]
58.46	2.0	815204	817837	ShowFixation	ANTI	10	1	True	red	600	[ 90 570 405 675]	[1350 1830  405  675]
61.093	0.2	817837	818072	BlankScreen	ANTI	10	1	True	red	600	[ 90 570 405 675]	[1350 1830  405  675]
61.328	1.0	818072	819113	ELCue	ANTI	10	1	True	red	600	[ 90 570 405 675]	[1350 1830  405  675]
62.786	2.0	819530	822158	ShowFixation	VGS	11	1	True	lime	600	[1350 1830  405  675]	[ 90 570 405 675]
65.414	0.2	822158	822393	BlankScreen	VGS	11	1	True	lime	600	[1350 1830  405  675]	[ 90 570 405 675]
65.649	1.0	822393	823434	ELCue	VGS	11	1	True	lime	600	[1350 1830  405  675]	[ 90 570 405 675]
67.105	2.0	823849	826479	ShowFixation	VGS	12	1	True	lime	180	[405 885 405 675]	[1035 1515  405  675]
69.735	0.2	826479	826714	BlankScreen	VGS	12	1	True	lime	180	[405 885 405 675]	[1035 1515  405  675]
69.97	1.0	826714	827755	ELCue	VGS	12	1	True	lime	180	[405 885 405 675]	[1035 1515  405  675]
71.421	6.0	828165	834800	ShowFixation	ANTI	13	1	True	red	460	[405 885 405 675]	[1035 1515  405  675]
78.056	0.2	834800	835039	BlankScreen	ANTI	13	1	True	red	460	[405 885 405 675]	[1035 1515  405  675]
78.295	1.0	835039	836079	ELCue	ANTI	13	1	True	red	460	[405 885 405 675]	[1035 1515  405  675]
79.753	6.0	836497	843124	ShowFixation	ANTI	14	1	True	red	600	[ 90 570 405 675]	[1350 1830  405  675]
86.38	0.2	843124	843364	BlankScreen	ANTI	14	1	True	red	600	[ 90 570 405 675]	[1350 1830  405  675]
86.62	1.0	843364	844402	ELCue	ANTI	14	1	True	red	600	[ 90 570 405 675]	[1350 1830  405  675]
88.065	2.0	844809	847433	ShowFixation	ANTI	15	1	True	red	460	[405 885 405 675]	[1035 1515  405  675]
90.689	0.2	847433	847668	BlankScreen	ANTI	15	1	True	red	460	[405 885 405 675]	[1035 1515  405  675]
90.924	1.0	847668	848706	ELCue	ANTI	15	1	True	red	460	[405 885 405 675]	[1035 1515  405  675]
92.382	6.0	849126	855754	ShowFixation	VGS	16	1	True	lime	180	[405 885 405 675]	[1035 1515  405  675]
99.01	0.2	855754	855993	BlankScreen	VGS	16	1	True	lime	180	[405 885 405 675]	[1035 1515  405  675]
99.249	1.0	855993	857034	ELCue	VGS	16	1	True	lime	180	[405 885 405 675]	[1035 1515  405  675]
129.625	6.0	886369	892407	ShowFixation	VGS	17	2	False	lime	460	[1035 1515  405  675]	[405 885 405 675]
135.663	0.2	892407	892647	BlankScreen	VGS	17	2	False	lime	460	[1035 1515  405  675]	[405 885 405 675]
135.903	1.0	892647	893647	ELCue	VGS	17	2	False	lime	460	[1035 1515  405  675]	[405 885 405 675]
137.324	6.0	894068	900098	ShowFixation	ANTI	18	2	False	red	600	[ 90 570 405 675]	[1350 1830  405  675]
143.354	0.2	900098	900338	BlankScreen	ANTI	18	2	False	red	600	[ 90 570 405 675]	[1350 1830  405  675]
143.594	1.0	900338	901338	ELCue	ANTI	18	2	False	red	600	[ 90 570 405 675]	[1350 1830  405  675]
145.018	6.0	901762	907789	ShowFixation	ANTI	19	2	False	red	40	[1350 1830  405  675]	[ 90 570 405 675]
151.045	0.2	907789	908028	BlankScreen	ANTI	19	2	False	red	40	[1350 1830  405  675]	[ 90 570 405 675]
151.284	1.0	908028	909028	ELCue	ANTI	19	2	False	red	40	[1350 1830  405  675]	[ 90 570 405 675]
152.702	6.0	909446	915480	ShowFixation	VGS	20	2	False	lime	40	[ 90 570 405 675]	[1350 1830  405  675]
158.736	0.2	915480	915719	BlankScreen	VGS	20	2	False	lime	40	[ 90 570 405 675]	[1350 1830  405  675]
158.975	1.0	915719	916719	ELCue	VGS	20	2	False	lime	40	[ 90 570 405 675]	[1350 1830  405  675]
160.392	2.0	917136	919171	ShowFixation	ANTI	21	2	False	red	600	[ 90 570 405 675]	[1350 1830  405  675]
162.427	0.2	919171	919406	BlankScreen	ANTI	21	2	False	red	600	[ 90 570 405 675]	[1350 1830  405  675]
162.662	1.0	919406	920406	ELCue	ANTI	21	2	False	red	600	[ 90 570 405 675]	[1350 1830  405  675]
164.088	2.0	920832	922858	ShowFixation	ANTI	22	2	False	red	460	[405 885 405 675]	[1035 1515  405  675]
166.114	0.2	922858	923093	BlankScreen	ANTI	22	2	False	red	460	[405 885 405 675]	[1035 1515  405  675]
166.349	1.0	923093	924093	ELCue	ANTI	22	2	False	red	460	[405 885 405 675]	[1035 1515  405  675]
167.769	2.0	924513	926545	ShowFixation	VGS	23	2	False	lime	40	[ 90 570 405 675]	[1350 1830  405  675]
169.801	0.2	926545	926780	BlankScreen	VGS	23	2	False	lime	40	[ 90 570 405 675]	[1350 1830  405  675]
170.036	1.0	926780	927780	ELCue	VGS	23	2	False	lime	40	[ 90 570 405 675]	[1350 1830  405  675]
171.454	2.0	928198	930232	ShowFixation	ANTI	24	2	False	red	600	[ 90 570 405 675]	[1350 1830  405  675]
173.488	0.2	930232	930467	BlankScreen	ANTI	24	2	False	red	600	[ 90 570 405 675]	[1350 1830  405  675]
173.723	1.0	930467	931467	ELCue	ANTI	24	2	False	red	600	[ 90 570 405 675]	[1350 1830  405  675]
175.144	6.0	931888	937919	ShowFixation	ANTI	25	2	False	red	180	[1035 1515  405  675]	[405 885 405 675]
181.175	0.2	937919	938158	BlankScreen	ANTI	25	2	False	red	180	[1035 1515  405  675]	[405 885 405 675]
181.414	1.0	938158	939158	ELCue	ANTI	25	2	False	red	180	[1035 1515  405  675]	[405 885 405 675]
182.835	6.0	939579	945610	ShowFixation	VGS	26	2	False	lime	180	[405 885 405 675]	[1035 1515  405  675]
188.866	0.2	945610	945849	BlankScreen	VGS	26	2	False	lime	180	[405 885 405 675]	[1035 1515  405  675]
189.105	1.0	945849	946849	ELCue	VGS	26	2	False	lime	180	[405 885 405 675]	[1035 1515  405  675]
190.527	2.0	947271	949301	ShowFixation	VGS	27	2	False	lime	600	[1350 1830  405  675]	[ 90 570 405 675]
192.557	0.2	949301	949536	BlankScreen	VGS	27	2	False	lime	600	[1350 1830  405  675]	[ 90 570 405 675]
192.792	1.0	949536	950536	ELCue	VGS	27	2	False	lime	600	[1350 1830  405  675]	[ 90 570 405 675]
194.215	2.0	950959	952988	ShowFixation	VGS	28	2	False	lime	460	[1035 1515  405  675]	[405 885 405 675]
196.244	0.2	952988	953223	BlankScreen	VGS	28	2	False	lime	460	[1035 1515  405  675]	[405 885 405 675]
196.479	1.0	953223	954223	ELCue	VGS	28	2	False	lime	460	[1035 1515  405  675]	[405 885 405 675]
197.895	2.0	954639	956675	ShowFixation	VGS	29	2	False	lime	40	[ 90 570 405 675]	[1350 1830  405  675]
199.931	0.2	956675	956910	BlankScreen	VGS	29	2	False	lime	40	[ 90 570 405 675]	[1350 1830  405  675]
200.166	1.0	956910	957910	ELCue	VGS	29	2	False	lime	40	[ 90 570 405 675]	[1350 1830  405  675]
201.566	2.0	958310	960345	ShowFixation	ANTI	30	2	False	red	180	[1035 1515  405  675]	[405 885 405 675]
203.601	0.2	960345	960580	BlankScreen	ANTI	30	2	False	red	180	[1035 1515  405  675]	[405 885 405 675]
203.836	1.0	960580	961580	ELCue	ANTI	30	2	False	red	180	[1035 1515  405  675]	[405 885 405 675]
205.256	6.0	962000	968032	ShowFixation	ANTI	31	2	False	red	460	[405 885 405 675]	[1035 1515  405  675]
211.288	0.2	968032	968271	BlankScreen	ANTI	31	2	False	red	460	[405 885 405 675]	[1035 1515  405  675]
211.527	1.0	968271	969271	ELCue	ANTI	31	2	False	red	460	[405 885 405 675]	[1035 1515  405  675]
212.949	6.0	969693	975723	ShowFixation	ANTI	32	2	False	red	40	[1350 1830  405  675]	[ 90 570 405 675]
218.979	0.2	975723	975962	BlankScreen	ANTI	32	2	False	red	40	[1350 1830  405  675]	[ 90 570 405 675]
219.218	1.0	975962	976962	ELCue	ANTI	32	2	False	red	40	[1350 1830  405  675]	[ 90 570 405 675]
220.623	6.0	977367	983397	ShowFixation	VGS	33	2	False	lime	460	[1035 1515  405  675]	[405 885 405 675]
226.653	0.2	983397	983636	BlankScreen	VGS	33	2	False	lime	460	[1035 1515  405  675]	[405 885 405 675]
226.892	1.0	983636	984636	ELCue	VGS	33	2	False	lime	460	[1035 1515  405  675]	[405 885 405 675]
228.294	6.0	985038	991071	ShowFixation	VGS	34	2	False	lime	600	[1350 1830  405  675]	[ 90 570 405 675]
234.327	0.2	991071	991311	BlankScreen	VGS	34	2	False	lime	600	[1350 1830  405  675]	[ 90 570 405 675]
234.567	1.0	991311	992311	ELCue	VGS	34	2	False	lime	600	[1350 1830  405  675]	[ 90 570 405 675]
235.968	2.0	992712	994746	ShowFixation	ANTI	35	2	False	red	180	[1035 1515  405  675]	[405 885 405 675]
238.002	0.2	994746	994981	BlankScreen	ANTI	35	2	False	red	180	[1035 1515  405  675]	[405 885 405 675]
238.237	1.0	994981	995981	ELCue	ANTI	35	2	False	red	180	[1035 1515  405  675]	[405 885 405 675]
239.658	2.0	996402	998433	ShowFixation	VGS	36	2	False	lime	460	[1035 1515  405  675]	[405 885 405 675]
241.689	0.2	998433	998668	BlankScreen	VGS	36	2	False	lime	460	[1035 1515  405  675]	[405 885 405 675]
241.924	1.0	998668	999668	ELCue	VGS	36	2	False	lime	460	[1035 1515  405  675]	[405 885 405 675]
243.333	6.0	1000077	1006103	ShowFixation	ANTI	37	2	False	red	460	[405 885 405 675]	[1035 1515  405  675]
249.359	0.2	1006103	1006342	BlankScreen	ANTI	37	2	False	red	460	[405 885 405 675]	[1035 1515  405  675]
249.598	1.0	1006342	1007342	ELCue	ANTI	37	2	False	red	460	[405 885 405 675]	[1035 1515  405  675]
251.02	2.0	1007764	1009794	ShowFixation	ANTI	38	2	False	red	40	[1350 1830  405  675]	[ 90 570 405 675]
253.05	0.2	1009794	1010029	BlankScreen	ANTI	38	2	False	red	40	[1350 1830  405  675]	[ 90 570 405 675]
253.285	1.0	1010029	1011029	ELCue	ANTI	38	2	False	red	40	[1350 1830  405  675]	[ 90 570 405 675]
254.711	6.0	1011455	1017481	ShowFixation	VGS	39	2	False	lime	600	[1350 1830  405  675]	[ 90 570 405 675]
260.738	0.2	1017482	1017720	BlankScreen	VGS	39	2	False	lime	600	[1350 1830  405  675]	[ 90 570 405 675]
260.977	1.0	1017721	1018721	ELCue	VGS	39	2	False	lime	600	[1350 1830  405  675]	[ 90 570 405 675]
262.398	2.0	1019142	1021173	ShowFixation	VGS	40	2	False	lime	600	[1350 1830  405  675]	[ 90 570 405 675]
264.429	0.2	1021173	1021408	BlankScreen	VGS	40	2	False	lime	600	[1350 1830  405  675]	[ 90 570 405 675]
264.664	1.0	1021408	1022408	ELCue	VGS	40	2	False	lime	600	[1350 1830  405  675]	[ 90 570 405 675]
266.086	6.0	1022830	1028860	ShowFixation	VGS	41	2	False	lime	180	[405 885 405 675]	[1035 1515  405  675]
272.116	0.2	1028860	1029099	BlankScreen	VGS	41	2	False	lime	180	[405 885 405 675]	[1035 1515  405  675]
272.355	1.0	1029099	1030099	ELCue	VGS	41	2	False	lime	180	[405 885 405 675]	[1035 1515  405  675]
273.776	6.0	1030520	1036551	ShowFixation	VGS	42	2	False	lime	40	[ 90 570 405 675]	[1350 1830  405  675]
279.807	0.2	1036551	1036790	BlankScreen	VGS	42	2	False	lime	40	[ 90 570 405 675]	[1350 1830  405  675]
280.046	1.0	1036790	1037790	ELCue	VGS	42	2	False	lime	40	[ 90 570 405 675]	[1350 1830  405  675]
281.464	2.0	1038208	1040241	ShowFixation	ANTI	43	2	False	red	460	[405 885 405 675]	[1035 1515  405  675]
283.497	0.2	1040241	1040477	BlankScreen	ANTI	43	2	False	red	460	[405 885 405 675]	[1035 1515  405  675]
283.733	1.0	1040477	1041477	ELCue	ANTI	43	2	False	red	460	[405 885 405 675]	[1035 1515  405  675]
285.152	2.0	1041896	1043927	ShowFixation	VGS	44	2	False	lime	180	[405 885 405 675]	[1035 1515  405  675]
287.183	0.2	1043927	1044163	BlankScreen	VGS	44	2	False	lime	180	[405 885 405 675]	[1035 1515  405  675]
287.419	1.0	1044163	1045163	ELCue	VGS	44	2	False	lime	180	[405 885 405 675]	[1035 1515  405  675]
288.842	2.0	1045586	1047614	ShowFixation	VGS	45	2	False	lime	180	[405 885 405 675]	[1035 1515  405  675]
290.87	0.2	1047614	1047850	BlankScreen	VGS	45	2	False	lime	180	[405 885 405 675]	[1035 1515  405  675]
291.106	1.0	1047850	1048850	ELCue	VGS	45	2	False	lime	180	[405 885 405 675]	[1035 1515  405  675]
292.528	6.0	1049272	1055302	ShowFixation	ANTI	46	2	False	red	600	[ 90 570 405 675]	[1350 1830  405  675]
298.558	0.2	1055302	1055541	BlankScreen	ANTI	46	2	False	red	600	[ 90 570 405 675]	[1350 1830  405  675]
298.797	1.0	1055541	1056541	ELCue	ANTI	46	2	False	red	600	[ 90 570 405 675]	[1350 1830  405  675]
300.218	2.0	1056962	1058993	ShowFixation	ANTI	47	2	False	red	40	[1350 1830  405  675]	[ 90 570 405 675]
302.249	0.2	1058993	1059229	BlankScreen	ANTI	47	2	False	red	40	[1350 1830  405  675]	[ 90 570 405 675]
302.485	1.0	1059229	1060229	ELCue	ANTI	47	2	False	red	40	[1350 1830  405  675]	[ 90 570 405 675]
303.874	6.0	1060618	1066647	ShowFixation	ANTI	48	2	False	red	180	[1035 1515  405  675]	[405 885 405 675]
309.903	0.2	1066647	1066886	BlankScreen	ANTI	48	2	False	red	180	[1035 1515  405  675]	[405 885 405 675]
310.142	1.0	1066886	1067886	ELCue	ANTI	48	2	False	red	180	[1035 1515  405  675]	[405 885 405 675]
392.478	6.0	1149222	1155251	ShowFixation	ANTI	49	3	False	red	40	[1350 1830  405  675]	[ 90 570 405 675]
398.507	0.2	1155251	1155491	BlankScreen	ANTI	49	3	False	red	40	[1350 1830  405  675]	[ 90 570 405 675]
398.747	1.0	1155491	1156491	ELCue	ANTI	49	3	False	red	40	[1350 1830  405  675]	[ 90 570 405 675]
400.147	6.0	1156891	1162926	ShowFixation	ANTI	50	3	False	red	460	[405 885 405 675]	[1035 1515  405  675]
406.182	0.2	1162926	1163165	BlankScreen	ANTI	50	3	False	red	460	[405 885 405 675]	[1035 1515  405  675]
406.421	1.0	1163165	1164165	ELCue	ANTI	50	3	False	red	460	[405 885 405 675]	[1035 1515  405  675]
407.841	6.0	1164585	1170616	ShowFixation	ANTI	51	3	False	red	600	[ 90 570 405 675]	[1350 1830  405  675]
413.873	0.2	1170617	1170855	BlankScreen	ANTI	51	3	False	red	600	[ 90 570 405 675]	[1350 1830  405  675]
414.111	1.0	1170855	1171855	ELCue	ANTI	51	3	False	red	600	[ 90 570 405 675]	[1350 1830  405  675]
415.536	2.0	1172280	1174307	ShowFixation	ANTI	52	3	False	red	40	[1350 1830  405  675]	[ 90 570 405 675]
417.563	0.2	1174307	1174542	BlankScreen	ANTI	52	3	False	red	40	[1350 1830  405  675]	[ 90 570 405 675]
417.799	1.0	1174543	1175543	ELCue	ANTI	52	3	False	red	40	[1350 1830  405  675]	[ 90 570 405 675]
419.222	2.0	1175966	1177995	ShowFixation	VGS	53	3	False	lime	40	[ 90 570 405 675]	[1350 1830  405  675]
421.251	0.2	1177995	1178230	BlankScreen	VGS	53	3	False	lime	40	[ 90 570 405 675]	[1350 1830  405  675]
421.486	1.0	1178230	1179230	ELCue	VGS	53	3	False	lime	40	[ 90 570 405 675]	[1350 1830  405  675]
422.908	6.0	1179652	1185682	ShowFixation	ANTI	54	3	False	red	180	[1035 1515  405  675]	[405 885 405 675]
428.938	0.2	1185682	1185921	BlankScreen	ANTI	54	3	False	red	180	[1035 1515  405  675]	[405 885 405 675]
429.177	1.0	1185921	1186921	ELCue	ANTI	54	3	False	red	180	[1035 1515  405  675]	[405 885 405 675]
430.595	6.0	1187339	1193373	ShowFixation	ANTI	55	3	False	red	180	[1035 1515  405  675]	[405 885 405 675]
436.629	0.2	1193373	1193612	BlankScreen	ANTI	55	3	False	red	180	[1035 1515  405  675]	[405 885 405 675]
436.868	1.0	1193612	1194612	ELCue	ANTI	55	3	False	red	180	[1035 1515  405  675]	[405 885 405 675]
438.285	2.0	1195029	1197064	ShowFixation	ANTI	56	3	False	red	180	[1035 1515  405  675]	[405 885 405 675]
440.32	0.2	1197064	1197299	BlankScreen	ANTI	56	3	False	red	180	[1035 1515  405  675]	[405 885 405 675]
440.555	1.0	1197299	1198299	ELCue	ANTI	56	3	False	red	180	[1035 1515  405  675]	[405 885 405 675]
441.944	2.0	1198688	1200717	ShowFixation	VGS	57	3	False	lime	600	[1350 1830  405  675]	[ 90 570 405 675]
443.973	0.2	1200717	1200953	BlankScreen	VGS	57	3	False	lime	600	[1350 1830  405  675]	[ 90 570 405 675]
444.209	1.0	1200953	1201953	ELCue	VGS	57	3	False	lime	600	[1350 1830  405  675]	[ 90 570 405 675]
445.631	6.0	1202375	1208404	ShowFixation	ANTI	58	3	False	red	460	[405 885 405 675]	[1035 1515  405  675]
451.66	0.2	1208404	1208644	BlankScreen	ANTI	58	3	False	red	460	[405 885 405 675]	[1035 1515  405  675]
451.9	1.0	1208644	1209644	ELCue	ANTI	58	3	False	red	460	[405 885 405 675]	[1035 1515  405  675]
453.32	6.0	1210064	1216095	ShowFixation	VGS	59	3	False	lime	600	[1350 1830  405  675]	[ 90 570 405 675]
459.351	0.2	1216095	1216335	BlankScreen	VGS	59	3	False	lime	600	[1350 1830  405  675]	[ 90 570 405 675]
459.591	1.0	1216335	1217335	ELCue	VGS	59	3	False	lime	600	[1350 1830  405  675]	[ 90 570 405 675]
461.012	6.0	1217756	1223786	ShowFixation	VGS	60	3	False	lime	180	[405 885 405 675]	[1035 1515  405  675]
467.042	0.2	1223786	1224026	BlankScreen	VGS	60	3	False	lime	180	[405 885 405 675]	[1035 1515  405  675]
467.282	1.0	1224026	1225026	ELCue	VGS	60	3	False	lime	180	[405 885 405 675]	[1035 1515  405  675]
468.701	2.0	1225445	1227477	ShowFixation	VGS	61	3	False	lime	40	[ 90 570 405 675]	[1350 1830  405  675]
470.733	0.2	1227477	1227712	BlankScreen	VGS	61	3	False	lime	40	[ 90 570 405 675]	[1350 1830  405  675]
470.968	1.0	1227712	1228712	ELCue	VGS	61	3	False	lime	40	[ 90 570 405 675]	[1350 1830  405  675]
472.39	2.0	1229134	1231164	ShowFixation	ANTI	62	3	False	red	600	[ 90 570 405 675]	[1350 1830  405  675]
474.42	0.2	1231164	1231399	BlankScreen	ANTI	62	3	False	red	600	[ 90 570 405 675]	[1350 1830  405  675]
474.655	1.0	1231399	1232399	ELCue	ANTI	62	3	False	red	600	[ 90 570 405 675]	[1350 1830  405  675]
476.072	6.0	1232816	1238851	ShowFixation	VGS	63	3	False	lime	40	[ 90 570 405 675]	[1350 1830  405  675]
482.107	0.2	1238851	1239090	BlankScreen	VGS	63	3	False	lime	40	[ 90 570 405 675]	[1350 1830  405  675]
482.346	1.0	1239090	1240090	ELCue	VGS	63	3	False	lime	40	[ 90 570 405 675]	[1350 1830  405  675]
483.767	2.0	1240511	1242542	ShowFixation	VGS	64	3	False	lime	180	[405 885 405 675]	[1035 1515  405  675]
485.798	0.2	1242542	1242777	BlankScreen	VGS	64	3	False	lime	180	[405 885 405 675]	[1035 1515  405  675]
486.033	1.0	1242777	1243777	ELCue	VGS	64	3	False	lime	180	[405 885 405 675]	[1035 1515  405  675]
487.454	2.0	1244198	1246229	ShowFixation	ANTI	65	3	False	red	180	[1035 1515  405  675]	[405 885 405 675]
489.485	0.2	1246229	1246464	BlankScreen	ANTI	65	3	False	red	180	[1035 1515  405  675]	[405 885 405 675]
489.72	1.0	1246464	1247464	ELCue	ANTI	65	3	False	red	180	[1035 1515  405  675]	[405 885 405 675]
491.138	6.0	1247882	1253916	ShowFixation	ANTI	66	3	False	red	40	[1350 1830  405  675]	[ 90 570 405 675]
497.172	0.2	1253916	1254155	BlankScreen	ANTI	66	3	False	red	40	[1350 1830  405  675]	[ 90 570 405 675]
497.411	1.0	1254155	1255155	ELCue	ANTI	66	3	False	red	40	[1350 1830  405  675]	[ 90 570 405 675]
498.836	6.0	1255580	1261607	ShowFixation	VGS	67	3	False	lime	460	[1035 1515  405  675]	[405 885 405 675]
504.863	0.2	1261607	1261846	BlankScreen	VGS	67	3	False	lime	460	[1035 1515  405  675]	[405 885 405 675]
505.102	1.0	1261846	1262846	ELCue	VGS	67	3	False	lime	460	[1035 1515  405  675]	[405 885 405 675]
506.506	6.0	1263250	1269281	ShowFixation	VGS	68	3	False	lime	40	[ 90 570 405 675]	[1350 1830  405  675]
512.537	0.2	1269281	1269520	BlankScreen	VGS	68	3	False	lime	40	[ 90 570 405 675]	[1350 1830  405  675]
512.776	1.0	1269520	1270520	ELCue	VGS	68	3	False	lime	40	[ 90 570 405 675]	[1350 1830  405  675]
514.195	6.0	1270939	1276972	ShowFixation	VGS	69	3	False	lime	600	[1350 1830  405  675]	[ 90 570 405 675]
520.228	0.2	1276972	1277211	BlankScreen	VGS	69	3	False	lime	600	[1350 1830  405  675]	[ 90 570 405 675]
520.467	1.0	1277211	1278211	ELCue	VGS	69	3	False	lime	600	[1350 1830  405  675]	[ 90 570 405 675]
521.892	2.0	1278636	1280663	ShowFixation	VGS	70	3	False	lime	460	[1035 1515  405  675]	[405 885 405 675]
523.919	0.2	1280663	1280898	BlankScreen	VGS	70	3	False	lime	460	[1035 1515  405  675]	[405 885 405 675]
524.154	1.0	1280898	1281898	ELCue	VGS	70	3	False	lime	460	[1035 1515  405  675]	[405 885 405 675]
525.58	2.0	1282324	1284350	ShowFixation	ANTI	71	3	False	red	460	[405 885 405 675]	[1035 1515  405  675]
527.606	0.2	1284350	1284585	BlankScreen	ANTI	71	3	False	red	460	[405 885 405 675]	[1035 1515  405  675]
527.842	1.0	1284586	1285586	ELCue	ANTI	71	3	False	red	460	[405 885 405 675]	[1035 1515  405  675]
529.262	2.0	1286006	1288037	ShowFixation	ANTI	72	3	False	red	600	[ 90 570 405 675]	[1350 1830  405  675]
531.294	0.2	1288038	1288272	BlankScreen	ANTI	72	3	False	red	600	[ 90 570 405 675]	[1350 1830  405  675]
531.528	1.0	1288272	1289272	ELCue	ANTI	72	3	False	red	600	[ 90 570 405 675]	[1350 1830  405  675]
532.952	2.0	1289696	1291725	ShowFixation	VGS	73	3	False	lime	600	[1350 1830  405  675]	[ 90 570 405 675]
534.981	0.2	1291725	1291959	BlankScreen	VGS	73	3	False	lime	600	[1350 1830  405  675]	[ 90 570 405 675]
535.215	1.0	1291959	1292959	ELCue	VGS	73	3	False	lime	600	[1350 1830  405  675]	[ 90 570 405 675]
536.64	2.0	1293384	1295411	ShowFixation	VGS	74	3	False	lime	180	[405 885 405 675]	[1035 1515  405  675]
538.668	0.2	1295412	1295647	BlankScreen	VGS	74	3	False	lime	180	[405 885 405 675]	[1035 1515  405  675]
538.903	1.0	1295647	1296647	ELCue	VGS	74	3	False	lime	180	[405 885 405 675]	[1035 1515  405  675]
540.326	2.0	1297070	1299098	ShowFixation	VGS	75	3	False	lime	460	[1035 1515  405  675]	[405 885 405 675]
542.355	0.2	1299099	1299333	BlankScreen	VGS	75	3	False	lime	460	[1035 1515  405  675]	[405 885 405 675]
542.59	1.0	1299334	1300334	ELCue	VGS	75	3	False	lime	460	[1035 1515  405  675]	[405 885 405 675]
544.012	6.0	1300756	1306786	ShowFixation	ANTI	76	3	False	red	600	[ 90 570 405 675]	[1350 1830  405  675]
550.042	0.2	1306786	1307025	BlankScreen	ANTI	76	3	False	red	600	[ 90 570 405 675]	[1350 1830  405  675]
550.281	1.0	1307025	1308025	ELCue	ANTI	76	3	False	red	600	[ 90 570 405 675]	[1350 1830  405  675]
551.699	6.0	1308443	1314477	ShowFixation	VGS	77	3	False	lime	460	[1035 1515  405  675]	[405 885 405 675]
557.733	0.2	1314477	1314716	BlankScreen	VGS	77	3	False	lime	460	[1035 1515  405  675]	[405 885 405 675]
557.972	1.0	1314716	1315716	ELCue	VGS	77	3	False	lime	460	[1035 1515  405  675]	[405 885 405 675]
559.396	2.0	1316140	1318168	ShowFixation	ANTI	78	3	False	red	40	[1350 1830  405  675]	[ 90 570 405 675]
561.424	0.2	1318168	1318403	BlankScreen	ANTI	78	3	False	red	40	[1350 1830  405  675]	[ 90 570 405 675]
561.659	1.0	1318403	1319403	ELCue	ANTI	78	3	False	red	40	[1350 1830  405  675]	[ 90 570 405 675]
563.08	2.0	1319824	1321855	ShowFixation	ANTI	79	3	False	red	460	[405 885 405 675]	[1035 1515  405  675]
565.111	0.2	1321855	1322090	BlankScreen	ANTI	79	3	False	red	460	[405 885 405 675]	[1035 1515  405  675]
565.346	1.0	1322090	1323090	ELCue	ANTI	79	3	False	red	460	[405 885 405 675]	[1035 1515  405  675]
566.762	6.0	1323506	1329542	ShowFixation	VGS	80	3	False	lime	180	[405 885 405 675]	[1035 1515  405  675]
572.798	0.2	1329542	1329781	BlankScreen	VGS	80	3	False	lime	180	[405 885 405 675]	[1035 1515  405  675]
573.037	1.0	1329781	1330781	ELCue	VGS	80	3	False	lime	180	[405 885 405 675]	[1035 1515  405  675]
591.099	2.0	1347843	1349882	ShowFixation	ANTI	81	4	False	red	180	[1035 1515  405  675]	[405 885 405 675]
593.138	0.2	1349882	1350118	BlankScreen	ANTI	81	4	False	red	180	[1035 1515  405  675]	[405 885 405 675]
593.374	1.0	1350118	1351118	ELCue	ANTI	81	4	False	red	180	[1035 1515  405  675]	[405 885 405 675]
594.793	6.0	1351537	1357569	ShowFixation	VGS	82	4	False	lime	600	[1350 1830  405  675]	[ 90 570 405 675]
600.825	0.2	1357569	1357808	BlankScreen	VGS	82	4	False	lime	600	[1350 1830  405  675]	[ 90 570 405 675]
601.064	1.0	1357808	1358808	ELCue	VGS	82	4	False	lime	600	[1350 1830  405  675]	[ 90 570 405 675]
602.453	6.0	1359197	1365227	ShowFixation	ANTI	83	4	False	red	180	[1035 1515  405  675]	[405 885 405 675]
608.483	0.2	1365227	1365466	BlankScreen	ANTI	83	4	False	red	180	[1035 1515  405  675]	[405 885 405 675]
608.722	1.0	1365466	1366466	ELCue	ANTI	83	4	False	red	180	[1035 1515  405  675]	[405 885 405 675]
610.145	6.0	1366889	1372918	ShowFixation	ANTI	84	4	False	red	180	[1035 1515  405  675]	[405 885 405 675]
616.174	0.2	1372918	1373157	BlankScreen	ANTI	84	4	False	red	180	[1035 1515  405  675]	[405 885 405 675]
616.413	1.0	1373157	1374157	ELCue	ANTI	84	4	False	red	180	[1035 1515  405  675]	[405 885 405 675]
617.828	6.0	1374572	1380609	ShowFixation	ANTI	85	4	False	red	40	[1350 1830  405  675]	[ 90 570 405 675]
623.865	0.2	1380609	1380848	BlankScreen	ANTI	85	4	False	red	40	[1350 1830  405  675]	[ 90 570 405 675]
624.104	1.0	1380848	1381848	ELCue	ANTI	85	4	False	red	40	[1350 1830  405  675]	[ 90 570 405 675]
625.523	2.0	1382267	1384300	ShowFixation	ANTI	86	4	False	red	600	[ 90 570 405 675]	[1350 1830  405  675]
627.556	0.2	1384300	1384535	BlankScreen	ANTI	86	4	False	red	600	[ 90 570 405 675]	[1350 1830  405  675]
627.791	1.0	1384535	1385535	ELCue	ANTI	86	4	False	red	600	[ 90 570 405 675]	[1350 1830  405  675]
629.217	6.0	1385961	1391986	ShowFixation	ANTI	87	4	False	red	600	[ 90 570 405 675]	[1350 1830  405  675]
635.242	0.2	1391986	1392226	BlankScreen	ANTI	87	4	False	red	600	[ 90 570 405 675]	[1350 1830  405  675]
635.482	1.0	1392226	1393226	ELCue	ANTI	87	4	False	red	600	[ 90 570 405 675]	[1350 1830  405  675]
636.904	2.0	1393648	1395677	ShowFixation	ANTI	88	4	False	red	40	[1350 1830  405  675]	[ 90 570 405 675]
638.933	0.2	1395677	1395913	BlankScreen	ANTI	88	4	False	red	40	[1350 1830  405  675]	[ 90 570 405 675]
639.169	1.0	1395913	1396913	ELCue	ANTI	88	4	False	red	40	[1350 1830  405  675]	[ 90 570 405 675]
640.586	2.0	1397330	1399364	ShowFixation	ANTI	89	4	False	red	180	[1035 1515  405  675]	[405 885 405 675]
642.62	0.2	1399364	1399600	BlankScreen	ANTI	89	4	False	red	180	[1035 1515  405  675]	[405 885 405 675]
642.856	1.0	1399600	1400600	ELCue	ANTI	89	4	False	red	180	[1035 1515  405  675]	[405 885 405 675]
644.275	2.0	1401019	1403051	ShowFixation	VGS	90	4	False	lime	600	[1350 1830  405  675]	[ 90 570 405 675]
646.307	0.2	1403051	1403287	BlankScreen	VGS	90	4	False	lime	600	[1350 1830  405  675]	[ 90 570 405 675]
646.543	1.0	1403287	1404287	ELCue	VGS	90	4	False	lime	600	[1350 1830  405  675]	[ 90 570 405 675]
647.966	6.0	1404710	1410738	ShowFixation	ANTI	91	4	False	red	40	[1350 1830  405  675]	[ 90 570 405 675]
653.994	0.2	1410738	1410978	BlankScreen	ANTI	91	4	False	red	40	[1350 1830  405  675]	[ 90 570 405 675]
654.234	1.0	1410978	1411978	ELCue	ANTI	91	4	False	red	40	[1350 1830  405  675]	[ 90 570 405 675]
655.653	6.0	1412397	1418429	ShowFixation	VGS	92	4	False	lime	460	[1035 1515  405  675]	[405 885 405 675]
661.685	0.2	1418429	1418669	BlankScreen	VGS	92	4	False	lime	460	[1035 1515  405  675]	[405 885 405 675]
661.925	1.0	1418669	1419669	ELCue	VGS	92	4	False	lime	460	[1035 1515  405  675]	[405 885 405 675]
663.343	2.0	1420087	1422120	ShowFixation	ANTI	93	4	False	red	40	[1350 1830  405  675]	[ 90 570 405 675]
665.377	0.2	1422121	1422356	BlankScreen	ANTI	93	4	False	red	40	[1350 1830  405  675]	[ 90 570 405 675]
665.612	1.0	1422356	1423356	ELCue	ANTI	93	4	False	red	40	[1350 1830  405  675]	[ 90 570 405 675]
667.037	6.0	1423781	1429808	ShowFixation	VGS	94	4	False	lime	180	[405 885 405 675]	[1035 1515  405  675]
673.064	0.2	1429808	1430047	BlankScreen	VGS	94	4	False	lime	180	[405 885 405 675]	[1035 1515  405  675]
673.303	1.0	1430047	1431047	ELCue	VGS	94	4	False	lime	180	[405 885 405 675]	[1035 1515  405  675]
674.728	2.0	1431472	1433498	ShowFixation	ANTI	95	4	False	red	600	[ 90 570 405 675]	[1350 1830  405  675]
676.754	0.2	1433498	1433733	BlankScreen	ANTI	95	4	False	red	600	[ 90 570 405 675]	[1350 1830  405  675]
676.99	1.0	1433734	1434734	ELCue	ANTI	95	4	False	red	600	[ 90 570 405 675]	[1350 1830  405  675]
678.487	2.0	1435231	1437268	ShowFixation	VGS	96	4	False	lime	180	[405 885 405 675]	[1035 1515  405  675]
680.524	0.2	1437268	1437505	BlankScreen	VGS	96	4	False	lime	180	[405 885 405 675]	[1035 1515  405  675]
680.761	1.0	1437505	1438505	ELCue	VGS	96	4	False	lime	180	[405 885 405 675]	[1035 1515  405  675]
682.179	2.0	1438923	1440956	ShowFixation	ANTI	97	4	False	red	460	[405 885 405 675]	[1035 1515  405  675]
684.212	0.2	1440956	1441192	BlankScreen	ANTI	97	4	False	red	460	[405 885 405 675]	[1035 1515  405  675]
684.448	1.0	1441192	1442192	ELCue	ANTI	97	4	False	red	460	[405 885 405 675]	[1035 1515  405  675]
685.862	6.0	1442606	1448643	ShowFixation	VGS	98	4	False	lime	460	[1035 1515  405  675]	[405 885 405 675]
691.899	0.2	1448643	1448883	BlankScreen	VGS	98	4	False	lime	460	[1035 1515  405  675]	[405 885 405 675]
692.139	1.0	1448883	1449883	ELCue	VGS	98	4	False	lime	460	[1035 1515  405  675]	[405 885 405 675]
693.56	2.0	1450304	1452334	ShowFixation	ANTI	99	4	False	red	460	[405 885 405 675]	[1035 1515  405  675]
695.59	0.2	1452334	1452570	BlankScreen	ANTI	99	4	False	red	460	[405 885 405 675]	[1035 1515  405  675]
695.826	1.0	1452570	1453570	ELCue	ANTI	99	4	False	red	460	[405 885 405 675]	[1035 1515  405  675]
697.242	2.0	1453986	1456021	ShowFixation	VGS	100	4	False	lime	460	[1035 1515  405  675]	[405 885 405 675]
699.277	0.2	1456021	1456257	BlankScreen	VGS	100	4	False	lime	460	[1035 1515  405  675]	[405 885 405 675]
699.513	1.0	1456257	1457257	ELCue	VGS	100	4	False	lime	460	[1035 1515  405  675]	[405 885 405 675]
700.935	6.0	1457679	1463708	ShowFixation	VGS	101	4	False	lime	40	[ 90 570 405 675]	[1350 1830  405  675]
706.964	0.2	1463708	1463948	BlankScreen	VGS	101	4	False	lime	40	[ 90 570 405 675]	[1350 1830  405  675]
707.204	1.0	1463948	1464948	ELCue	VGS	101	4	False	lime	40	[ 90 570 405 675]	[1350 1830  405  675]
708.625	6.0	1465369	1471399	ShowFixation	ANTI	102	4	False	red	460	[405 885 405 675]	[1035 1515  405  675]
714.655	0.2	1471399	1471638	BlankScreen	ANTI	102	4	False	red	460	[405 885 405 675]	[1035 1515  405  675]
714.894	1.0	1471638	1472638	ELCue	ANTI	102	4	False	red	460	[405 885 405 675]	[1035 1515  405  675]
716.318	6.0	1473062	1479090	ShowFixation	ANTI	103	4	False	red	460	[405 885 405 675]	[1035 1515  405  675]
722.346	0.2	1479090	1479329	BlankScreen	ANTI	103	4	False	red	460	[405 885 405 675]	[1035 1515  405  675]
722.585	1.0	1479329	1480329	ELCue	ANTI	103	4	False	red	460	[405 885 405 675]	[1035 1515  405  675]
724.007	2.0	1480751	1482781	ShowFixation	VGS	104	4	False	lime	180	[405 885 405 675]	[1035 1515  405  675]
726.037	0.2	1482781	1483016	BlankScreen	VGS	104	4	False	lime	180	[405 885 405 675]	[1035 1515  405  675]
726.272	1.0	1483016	1484016	ELCue	VGS	104	4	False	lime	180	[405 885 405 675]	[1035 1515  405  675]
727.715	6.0	1484459	1490485	ShowFixation	VGS	105	4	False	lime	40	[ 90 570 405 675]	[1350 1830  405  675]
733.741	0.2	1490485	1490724	BlankScreen	VGS	105	4	False	lime	40	[ 90 570 405 675]	[1350 1830  405  675]
733.98	1.0	1490724	1491724	ELCue	VGS	105	4	False	lime	40	[ 90 570 405 675]	[1350 1830  405  675]
735.396	6.0	1492140	1498176	ShowFixation	VGS	106	4	False	lime	600	[1350 1830  405  675]	[ 90 570 405 675]
741.432	0.2	1498176	1498415	BlankScreen	VGS	106	4	False	lime	600	[1350 1830  405  675]	[ 90 570 405 675]
741.671	1.0	1498415	1499415	ELCue	VGS	106	4	False	lime	600	[1350 1830  405  675]	[ 90 570 405 675]
743.09	2.0	1499834	1501867	ShowFixation	VGS	107	4	False	lime	40	[ 90 570 405 675]	[1350 1830  405  675]
745.123	0.2	1501867	1502102	BlankScreen	VGS	107	4	False	lime	40	[ 90 570 405 675]	[1350 1830  405  675]
745.358	1.0	1502102	1503102	ELCue	VGS	107	4	False	lime	40	[ 90 570 405 675]	[1350 1830  405  675]
746.776	6.0	1503520	1509553	ShowFixation	ANTI	108	4	False	red	600	[ 90 570 405 675]	[1350 1830  405  675]
752.809	0.2	1509553	1509793	BlankScreen	ANTI	108	4	False	red	600	[ 90 570 405 675]	[1350 1830  405  675]
753.049	1.0	1509793	1510793	ELCue	ANTI	108	4	False	red	600	[ 90 570 405 675]	[1350 1830  405  675]
754.468	2.0	1511212	1513244	ShowFixation	VGS	109	4	False	lime	460	[1035 1515  405  675]	[405 885 405 675]
756.5	0.2	1513244	1513480	BlankScreen	VGS	109	4	False	lime	460	[1035 1515  405  675]	[405 885 405 675]
756.736	1.0	1513480	1514480	ELCue	VGS	109	4	False	lime	460	[1035 1515  405  675]	[405 885 405 675]
758.182	6.0	1514926	1520965	ShowFixation	VGS	110	4	False	lime	180	[405 885 405 675]	[1035 1515  405  675]
764.221	0.2	1520965	1521204	BlankScreen	VGS	110	4	False	lime	180	[405 885 405 675]	[1035 1515  405  675]
764.46	1.0	1521204	1522204	ELCue	VGS	110	4	False	lime	180	[405 885 405 675]	[1035 1515  405  675]
765.878	2.0	1522622	1524656	ShowFixation	VGS	111	4	False	lime	600	[1350 1830  405  675]	[ 90 570 405 675]
767.912	0.2	1524656	1524891	BlankScreen	VGS	111	4	False	lime	600	[1350 1830  405  675]	[ 90 570 405 675]
768.147	1.0	1524891	1525891	ELCue	VGS	111	4	False	lime	600	[1350 1830  405  675]	[ 90 570 405 675]
769.538	2.0	1526282	1528309	ShowFixation	VGS	112	4	False	lime	40	[ 90 570 405 675]	[1350 1830  405  675]
771.565	0.2	1528309	1528545	BlankScreen	VGS	112	4	False	lime	40	[ 90 570 405 675]	[1350 1830  405  675]
771.801	1.0	1528545	1529545	ELCue	VGS	112	4	False	lime	40	[ 90 570 405 675]	[1350 1830  405  675]
