onset	duration	startTime	stopTime	eventIdentifier	trial_type	trial_number	block_number	is_practice	fixation_color	cue_side	aoi_correct	aoi_incorrect
0.148	6.0	378086	384119	ShowFixation	ANTI	1	1	True	red	180	[1035 1515  405  675]	[405 885 405 675]
6.181	0.2	384119	384358	BlankScreen	ANTI	1	1	True	red	180	[1035 1515  405  675]	[405 885 405 675]
6.42	1.0	384358	385399	ELCue	ANTI	1	1	True	red	180	[1035 1515  405  675]	[405 885 405 675]
7.878	6.0	385816	392443	ShowFixation	VGS	2	1	True	lime	40	[ 90 570 405 675]	[1350 1830  405  675]
14.505	0.2	392443	392683	BlankScreen	VGS	2	1	True	lime	40	[ 90 570 405 675]	[1350 1830  405  675]
14.745	1.0	392683	393724	ELCue	VGS	2	1	True	lime	40	[ 90 570 405 675]	[1350 1830  405  675]
16.206	2.0	394144	396768	ShowFixation	ANTI	3	1	True	red	460	[405 885 405 675]	[1035 1515  405  675]
18.83	0.2	396768	397004	BlankScreen	ANTI	3	1	True	red	460	[405 885 405 675]	[1035 1515  405  675]
19.066	1.0	397004	398042	ELCue	ANTI	3	1	True	red	460	[405 885 405 675]	[1035 1515  405  675]
20.526	2.0	398464	401089	ShowFixation	ANTI	4	1	True	red	180	[1035 1515  405  675]	[405 885 405 675]
23.152	0.2	401090	401325	BlankScreen	ANTI	4	1	True	red	180	[1035 1515  405  675]	[405 885 405 675]
23.387	1.0	401325	402366	ELCue	ANTI	4	1	True	red	180	[1035 1515  405  675]	[405 885 405 675]
24.84	2.0	402778	405411	ShowFixation	VGS	5	1	True	lime	180	[405 885 405 675]	[1035 1515  405  675]
27.473	0.2	405411	405646	BlankScreen	VGS	5	1	True	lime	180	[405 885 405 675]	[1035 1515  405  675]
27.708	1.0	405646	406687	ELCue	VGS	5	1	True	lime	180	[405 885 405 675]	[1035 1515  405  675]
29.17	6.0	407108	413732	ShowFixation	ANTI	6	1	True	red	460	[405 885 405 675]	[1035 1515  405  675]
35.794	0.2	413732	413971	BlankScreen	ANTI	6	1	True	red	460	[405 885 405 675]	[1035 1515  405  675]
36.033	1.0	413971	415012	ELCue	ANTI	6	1	True	red	460	[405 885 405 675]	[1035 1515  405  675]
37.49	2.0	415428	418057	ShowFixation	VGS	7	1	True	lime	40	[ 90 570 405 675]	[1350 1830  405  675]
40.119	0.2	418057	418292	BlankScreen	VGS	7	1	True	lime	40	[ 90 570 405 675]	[1350 1830  405  675]
40.354	1.0	418292	419333	ELCue	VGS	7	1	True	lime	40	[ 90 570 405 675]	[1350 1830  405  675]
41.809	2.0	419747	422378	ShowFixation	VGS	8	1	True	lime	460	[1035 1515  405  675]	[405 885 405 675]
44.44	0.2	422378	422613	BlankScreen	VGS	8	1	True	lime	460	[1035 1515  405  675]	[405 885 405 675]
44.675	1.0	422613	423653	ELCue	VGS	8	1	True	lime	460	[1035 1515  405  675]	[405 885 405 675]
46.135	6.0	424073	430682	ShowFixation	VGS	9	1	True	lime	180	[405 885 405 675]	[1035 1515  405  675]
52.744	0.2	430682	430921	BlankScreen	VGS	9	1	True	lime	180	[405 885 405 675]	[1035 1515  405  675]
52.983	1.0	430921	431962	ELCue	VGS	9	1	True	lime	180	[405 885 405 675]	[1035 1515  405  675]
54.442	2.0	432380	435007	ShowFixation	ANTI	10	1	True	red	600	[ 90 570 405 675]	[1350 1830  405  675]
57.069	0.2	435007	435242	BlankScreen	ANTI	10	1	True	red	600	[ 90 570 405 675]	[1350 1830  405  675]
57.304	1.0	435242	436280	ELCue	ANTI	10	1	True	red	600	[ 90 570 405 675]	[1350 1830  405  675]
58.803	6.0	436741	443328	ShowFixation	VGS	11	1	True	lime	600	[1350 1830  405  675]	[ 90 570 405 675]
65.39	0.2	443328	443567	BlankScreen	VGS	11	1	True	lime	600	[1350 1830  405  675]	[ 90 570 405 675]
65.629	1.0	443567	444608	ELCue	VGS	11	1	True	lime	600	[1350 1830  405  675]	[ 90 570 405 675]
67.091	6.0	445029	451653	ShowFixation	ANTI	12	1	True	red	600	[ 90 570 405 675]	[1350 1830  405  675]
73.715	0.2	451653	451892	BlankScreen	ANTI	12	1	True	red	600	[ 90 570 405 675]	[1350 1830  405  675]
73.954	1.0	451892	452929	ELCue	ANTI	12	1	True	red	600	[ 90 570 405 675]	[1350 1830  405  675]
75.398	2.0	453336	455978	ShowFixation	VGS	13	1	True	lime	600	[1350 1830  405  675]	[ 90 570 405 675]
78.04	0.2	455978	456213	BlankScreen	VGS	13	1	True	lime	600	[1350 1830  405  675]	[ 90 570 405 675]
78.275	1.0	456213	457254	ELCue	VGS	13	1	True	lime	600	[1350 1830  405  675]	[ 90 570 405 675]
79.737	6.0	457675	464299	ShowFixation	VGS	14	1	True	lime	460	[1035 1515  405  675]	[405 885 405 675]
86.361	0.2	464299	464538	BlankScreen	VGS	14	1	True	lime	460	[1035 1515  405  675]	[405 885 405 675]
86.6	1.0	464538	465579	ELCue	VGS	14	1	True	lime	460	[1035 1515  405  675]	[405 885 405 675]
88.058	6.0	465996	472624	ShowFixation	ANTI	15	1	True	red	40	[1350 1830  405  675]	[ 90 570 405 675]
94.686	0.2	472624	472863	BlankScreen	ANTI	15	1	True	red	40	[1350 1830  405  675]	[ 90 570 405 675]
94.925	1.0	472863	473903	ELCue	ANTI	15	1	True	red	40	[1350 1830  405  675]	[ 90 570 405 675]
96.388	2.0	474326	476932	ShowFixation	ANTI	16	1	True	red	40	[1350 1830  405  675]	[ 90 570 405 675]
98.994	0.2	476932	477150	BlankScreen	ANTI	16	1	True	red	40	[1350 1830  405  675]	[ 90 570 405 675]
99.212	1.0	477150	478174	ELCue	ANTI	16	1	True	red	40	[1350 1830  405  675]	[ 90 570 405 675]
117.456	6.0	495394	501419	ShowFixation	VGS	17	2	False	lime	180	[405 885 405 675]	[1035 1515  405  675]
123.481	0.2	501419	501658	BlankScreen	VGS	17	2	False	lime	180	[405 885 405 675]	[1035 1515  405  675]
123.72	1.0	501658	502658	ELCue	VGS	17	2	False	lime	180	[405 885 405 675]	[1035 1515  405  675]
125.14	6.0	503078	509109	ShowFixation	VGS	18	2	False	lime	40	[ 90 570 405 675]	[1350 1830  405  675]
131.171	0.2	509109	509350	BlankScreen	VGS	18	2	False	lime	40	[ 90 570 405 675]	[1350 1830  405  675]
131.412	1.0	509350	510350	ELCue	VGS	18	2	False	lime	40	[ 90 570 405 675]	[1350 1830  405  675]
132.837	2.0	510775	512800	ShowFixation	VGS	19	2	False	lime	40	[ 90 570 405 675]	[1350 1830  405  675]
134.862	0.2	512800	513036	BlankScreen	VGS	19	2	False	lime	40	[ 90 570 405 675]	[1350 1830  405  675]
135.098	1.0	513036	514036	ELCue	VGS	19	2	False	lime	40	[ 90 570 405 675]	[1350 1830  405  675]
136.52	6.0	514458	520487	ShowFixation	ANTI	20	2	False	red	600	[ 90 570 405 675]	[1350 1830  405  675]
142.549	0.2	520487	520727	BlankScreen	ANTI	20	2	False	red	600	[ 90 570 405 675]	[1350 1830  405  675]
142.789	1.0	520727	521727	ELCue	ANTI	20	2	False	red	600	[ 90 570 405 675]	[1350 1830  405  675]
144.208	2.0	522146	524178	ShowFixation	ANTI	21	2	False	red	180	[1035 1515  405  675]	[405 885 405 675]
146.24	0.2	524178	524414	BlankScreen	ANTI	21	2	False	red	180	[1035 1515  405  675]	[405 885 405 675]
146.476	1.0	524414	525414	ELCue	ANTI	21	2	False	red	180	[1035 1515  405  675]	[405 885 405 675]
147.897	6.0	525835	531866	ShowFixation	ANTI	22	2	False	red	180	[1035 1515  405  675]	[405 885 405 675]
153.928	0.2	531866	532105	BlankScreen	ANTI	22	2	False	red	180	[1035 1515  405  675]	[405 885 405 675]
154.168	1.0	532106	533106	ELCue	ANTI	22	2	False	red	180	[1035 1515  405  675]	[405 885 405 675]
155.59	2.0	533528	535557	ShowFixation	ANTI	23	2	False	red	40	[1350 1830  405  675]	[ 90 570 405 675]
157.619	0.2	535557	535792	BlankScreen	ANTI	23	2	False	red	40	[1350 1830  405  675]	[ 90 570 405 675]
157.855	1.0	535793	536793	ELCue	ANTI	23	2	False	red	40	[1350 1830  405  675]	[ 90 570 405 675]
159.274	6.0	537212	543244	ShowFixation	ANTI	24	2	False	red	40	[1350 1830  405  675]	[ 90 570 405 675]
165.306	0.2	543244	543483	BlankScreen	ANTI	24	2	False	red	40	[1350 1830  405  675]	[ 90 570 405 675]
165.545	1.0	543483	544483	ELCue	ANTI	24	2	False	red	40	[1350 1830  405  675]	[ 90 570 405 675]
166.966	6.0	544904	550935	ShowFixation	VGS	25	2	False	lime	460	[1035 1515  405  675]	[405 885 405 675]
172.997	0.2	550935	551174	BlankScreen	VGS	25	2	False	lime	460	[1035 1515  405  675]	[405 885 405 675]
173.236	1.0	551174	552174	ELCue	VGS	25	2	False	lime	460	[1035 1515  405  675]	[405 885 405 675]
174.663	2.0	552601	554643	ShowFixation	VGS	26	2	False	lime	460	[1035 1515  405  675]	[405 885 405 675]
176.705	0.2	554643	554878	BlankScreen	VGS	26	2	False	lime	460	[1035 1515  405  675]	[405 885 405 675]
176.94	1.0	554878	555878	ELCue	VGS	26	2	False	lime	460	[1035 1515  405  675]	[405 885 405 675]
178.362	6.0	556300	562330	ShowFixation	ANTI	27	2	False	red	180	[1035 1515  405  675]	[405 885 405 675]
184.392	0.2	562330	562569	BlankScreen	ANTI	27	2	False	red	180	[1035 1515  405  675]	[405 885 405 675]
184.631	1.0	562569	563569	ELCue	ANTI	27	2	False	red	180	[1035 1515  405  675]	[405 885 405 675]
186.05	6.0	563988	570021	ShowFixation	VGS	28	2	False	lime	40	[ 90 570 405 675]	[1350 1830  405  675]
192.083	0.2	570021	570260	BlankScreen	VGS	28	2	False	lime	40	[ 90 570 405 675]	[1350 1830  405  675]
192.322	1.0	570260	571260	ELCue	VGS	28	2	False	lime	40	[ 90 570 405 675]	[1350 1830  405  675]
193.744	2.0	571682	573711	ShowFixation	ANTI	29	2	False	red	460	[405 885 405 675]	[1035 1515  405  675]
195.773	0.2	573711	573947	BlankScreen	ANTI	29	2	False	red	460	[405 885 405 675]	[1035 1515  405  675]
196.009	1.0	573947	574947	ELCue	ANTI	29	2	False	red	460	[405 885 405 675]	[1035 1515  405  675]
197.411	6.0	575349	581382	ShowFixation	VGS	30	2	False	lime	600	[1350 1830  405  675]	[ 90 570 405 675]
203.444	0.2	581382	581621	BlankScreen	VGS	30	2	False	lime	600	[1350 1830  405  675]	[ 90 570 405 675]
203.683	1.0	581621	582621	ELCue	VGS	30	2	False	lime	600	[1350 1830  405  675]	[ 90 570 405 675]
205.102	2.0	583040	585073	ShowFixation	VGS	31	2	False	lime	600	[1350 1830  405  675]	[ 90 570 405 675]
207.135	0.2	585073	585308	BlankScreen	VGS	31	2	False	lime	600	[1350 1830  405  675]	[ 90 570 405 675]
207.37	1.0	585308	586308	ELCue	VGS	31	2	False	lime	600	[1350 1830  405  675]	[ 90 570 405 675]
208.792	2.0	586730	588760	ShowFixation	ANTI	32	2	False	red	180	[1035 1515  405  675]	[405 885 405 675]
210.822	0.2	588760	588995	BlankScreen	ANTI	32	2	False	red	180	[1035 1515  405  675]	[405 885 405 675]
211.057	1.0	588995	589995	ELCue	ANTI	32	2	False	red	180	[1035 1515  405  675]	[405 885 405 675]
212.484	2.0	590422	592447	ShowFixation	ANTI	33	2	False	red	600	[ 90 570 405 675]	[1350 1830  405  675]
214.509	0.2	592447	592682	BlankScreen	ANTI	33	2	False	red	600	[ 90 570 405 675]	[1350 1830  405  675]
214.744	1.0	592682	593682	ELCue	ANTI	33	2	False	red	600	[ 90 570 405 675]	[1350 1830  405  675]
216.168	6.0	594106	600134	ShowFixation	ANTI	34	2	False	red	460	[405 885 405 675]	[1035 1515  405  675]
222.196	0.2	600134	600373	BlankScreen	ANTI	34	2	False	red	460	[405 885 405 675]	[1035 1515  405  675]
222.435	1.0	600373	601373	ELCue	ANTI	34	2	False	red	460	[405 885 405 675]	[1035 1515  405  675]
223.856	2.0	601794	603824	ShowFixation	ANTI	35	2	False	red	40	[1350 1830  405  675]	[ 90 570 405 675]
225.886	0.2	603824	604060	BlankScreen	ANTI	35	2	False	red	40	[1350 1830  405  675]	[ 90 570 405 675]
226.122	1.0	604060	605060	ELCue	ANTI	35	2	False	red	40	[1350 1830  405  675]	[ 90 570 405 675]
227.544	2.0	605482	607511	ShowFixation	ANTI	36	2	False	red	460	[405 885 405 675]	[1035 1515  405  675]
229.573	0.2	607511	607747	BlankScreen	ANTI	36	2	False	red	460	[405 885 405 675]	[1035 1515  405  675]
229.809	1.0	607747	608747	ELCue	ANTI	36	2	False	red	460	[405 885 405 675]	[1035 1515  405  675]
231.234	2.0	609172	611198	ShowFixation	VGS	37	2	False	lime	180	[405 885 405 675]	[1035 1515  405  675]
233.26	0.2	611198	611434	BlankScreen	VGS	37	2	False	lime	180	[405 885 405 675]	[1035 1515  405  675]
233.496	1.0	611434	612434	ELCue	VGS	37	2	False	lime	180	[405 885 405 675]	[1035 1515  405  675]
234.923	2.0	612861	614885	ShowFixation	VGS	38	2	False	lime	460	[1035 1515  405  675]	[405 885 405 675]
236.947	0.2	614885	615121	BlankScreen	VGS	38	2	False	lime	460	[1035 1515  405  675]	[405 885 405 675]
237.183	1.0	615121	616121	ELCue	VGS	38	2	False	lime	460	[1035 1515  405  675]	[405 885 405 675]
238.606	6.0	616544	622572	ShowFixation	VGS	39	2	False	lime	600	[1350 1830  405  675]	[ 90 570 405 675]
244.634	0.2	622572	622812	BlankScreen	VGS	39	2	False	lime	600	[1350 1830  405  675]	[ 90 570 405 675]
244.874	1.0	622812	623812	ELCue	VGS	39	2	False	lime	600	[1350 1830  405  675]	[ 90 570 405 675]
246.297	6.0	624235	630263	ShowFixation	ANTI	40	2	False	red	460	[405 885 405 675]	[1035 1515  405  675]
252.325	0.2	630263	630503	BlankScreen	ANTI	40	2	False	red	460	[405 885 405 675]	[1035 1515  405  675]
252.565	1.0	630503	631503	ELCue	ANTI	40	2	False	red	460	[405 885 405 675]	[1035 1515  405  675]
253.99	2.0	631928	633954	ShowFixation	VGS	41	2	False	lime	180	[405 885 405 675]	[1035 1515  405  675]
256.016	0.2	633954	634190	BlankScreen	VGS	41	2	False	lime	180	[405 885 405 675]	[1035 1515  405  675]
256.252	1.0	634190	635190	ELCue	VGS	41	2	False	lime	180	[405 885 405 675]	[1035 1515  405  675]
257.67	2.0	635608	637641	ShowFixation	VGS	42	2	False	lime	600	[1350 1830  405  675]	[ 90 570 405 675]
259.703	0.2	637641	637877	BlankScreen	VGS	42	2	False	lime	600	[1350 1830  405  675]	[ 90 570 405 675]
259.939	1.0	637877	638877	ELCue	VGS	42	2	False	lime	600	[1350 1830  405  675]	[ 90 570 405 675]
261.342	2.0	639280	641311	ShowFixation	ANTI	43	2	False	red	600	[ 90 570 405 675]	[1350 1830  405  675]
263.373	0.2	641311	641547	BlankScreen	ANTI	43	2	False	red	600	[ 90 570 405 675]	[1350 1830  405  675]
263.609	1.0	641547	642547	ELCue	ANTI	43	2	False	red	600	[ 90 570 405 675]	[1350 1830  405  675]
265.028	6.0	642966	648998	ShowFixation	VGS	44	2	False	lime	180	[405 885 405 675]	[1035 1515  405  675]
271.06	0.2	648998	649238	BlankScreen	VGS	44	2	False	lime	180	[405 885 405 675]	[1035 1515  405  675]
271.3	1.0	649238	650238	ELCue	VGS	44	2	False	lime	180	[405 885 405 675]	[1035 1515  405  675]
272.723	6.0	650661	656690	ShowFixation	ANTI	45	2	False	red	600	[ 90 570 405 675]	[1350 1830  405  675]
278.752	0.2	656690	656929	BlankScreen	ANTI	45	2	False	red	600	[ 90 570 405 675]	[1350 1830  405  675]
278.991	1.0	656929	657929	ELCue	ANTI	45	2	False	red	600	[ 90 570 405 675]	[1350 1830  405  675]
280.414	2.0	658352	660381	ShowFixation	VGS	46	2	False	lime	40	[ 90 570 405 675]	[1350 1830  405  675]
282.443	0.2	660381	660616	BlankScreen	VGS	46	2	False	lime	40	[ 90 570 405 675]	[1350 1830  405  675]
282.679	1.0	660617	661617	ELCue	VGS	46	2	False	lime	40	[ 90 570 405 675]	[1350 1830  405  675]
284.083	6.0	662021	668052	ShowFixation	ANTI	47	2	False	red	40	[1350 1830  405  675]	[ 90 570 405 675]
290.114	0.2	668052	668291	BlankScreen	ANTI	47	2	False	red	40	[1350 1830  405  675]	[ 90 570 405 675]
290.353	1.0	668291	669291	ELCue	ANTI	47	2	False	red	40	[1350 1830  405  675]	[ 90 570 405 675]
291.778	6.0	669716	675742	ShowFixation	VGS	48	2	False	lime	460	[1035 1515  405  675]	[405 885 405 675]
297.804	0.2	675742	675982	BlankScreen	VGS	48	2	False	lime	460	[1035 1515  405  675]	[405 885 405 675]
298.044	1.0	675982	676982	ELCue	VGS	48	2	False	lime	460	[1035 1515  405  675]	[405 885 405 675]
321.256	6.0	699194	705221	ShowFixation	VGS	49	3	False	lime	180	[405 885 405 675]	[1035 1515  405  675]
327.283	0.2	705221	705461	BlankScreen	VGS	49	3	False	lime	180	[405 885 405 675]	[1035 1515  405  675]
327.523	1.0	705461	706461	ELCue	VGS	49	3	False	lime	180	[405 885 405 675]	[1035 1515  405  675]
328.947	2.0	706885	708912	ShowFixation	VGS	50	3	False	lime	460	[1035 1515  405  675]	[405 885 405 675]
330.974	0.2	708912	709148	BlankScreen	VGS	50	3	False	lime	460	[1035 1515  405  675]	[405 885 405 675]
331.21	1.0	709148	710148	ELCue	VGS	50	3	False	lime	460	[1035 1515  405  675]	[405 885 405 675]
332.635	6.0	710573	716599	ShowFixation	ANTI	51	3	False	red	600	[ 90 570 405 675]	[1350 1830  405  675]
338.661	0.2	716599	716839	BlankScreen	ANTI	51	3	False	red	600	[ 90 570 405 675]	[1350 1830  405  675]
338.901	1.0	716839	717839	ELCue	ANTI	51	3	False	red	600	[ 90 570 405 675]	[1350 1830  405  675]
340.326	2.0	718264	720290	ShowFixation	VGS	52	3	False	lime	600	[1350 1830  405  675]	[ 90 570 405 675]
342.352	0.2	720290	720526	BlankScreen	VGS	52	3	False	lime	600	[1350 1830  405  675]	[ 90 570 405 675]
342.588	1.0	720526	721526	ELCue	VGS	52	3	False	lime	600	[1350 1830  405  675]	[ 90 570 405 675]
344.008	6.0	721946	727977	ShowFixation	VGS	53	3	False	lime	460	[1035 1515  405  675]	[405 885 405 675]
350.039	0.2	727977	728217	BlankScreen	VGS	53	3	False	lime	460	[1035 1515  405  675]	[405 885 405 675]
350.279	1.0	728217	729217	ELCue	VGS	53	3	False	lime	460	[1035 1515  405  675]	[405 885 405 675]
351.702	2.0	729640	731668	ShowFixation	VGS	54	3	False	lime	40	[ 90 570 405 675]	[1350 1830  405  675]
353.73	0.2	731668	731904	BlankScreen	VGS	54	3	False	lime	40	[ 90 570 405 675]	[1350 1830  405  675]
353.966	1.0	731904	732904	ELCue	VGS	54	3	False	lime	40	[ 90 570 405 675]	[1350 1830  405  675]
355.388	2.0	733326	735355	ShowFixation	ANTI	55	3	False	red	460	[405 885 405 675]	[1035 1515  405  675]
357.417	0.2	735355	735590	BlankScreen	ANTI	55	3	False	red	460	[405 885 405 675]	[1035 1515  405  675]
357.652	1.0	735590	736590	ELCue	ANTI	55	3	False	red	460	[405 885 405 675]	[1035 1515  405  675]
359.075	2.0	737013	739042	ShowFixation	ANTI	56	3	False	red	180	[1035 1515  405  675]	[405 885 405 675]
361.104	0.2	739042	739277	BlankScreen	ANTI	56	3	False	red	180	[1035 1515  405  675]	[405 885 405 675]
361.339	1.0	739277	740277	ELCue	ANTI	56	3	False	red	180	[1035 1515  405  675]	[405 885 405 675]
362.764	6.0	740702	746729	ShowFixation	ANTI	57	3	False	red	460	[405 885 405 675]	[1035 1515  405  675]
368.791	0.2	746729	746968	BlankScreen	ANTI	57	3	False	red	460	[405 885 405 675]	[1035 1515  405  675]
369.03	1.0	746968	747968	ELCue	ANTI	57	3	False	red	460	[405 885 405 675]	[1035 1515  405  675]
370.45	2.0	748388	750420	ShowFixation	ANTI	58	3	False	red	600	[ 90 570 405 675]	[1350 1830  405  675]
372.482	0.2	750420	750655	BlankScreen	ANTI	58	3	False	red	600	[ 90 570 405 675]	[1350 1830  405  675]
372.717	1.0	750655	751655	ELCue	ANTI	58	3	False	red	600	[ 90 570 405 675]	[1350 1830  405  675]
374.138	6.0	752076	758107	ShowFixation	ANTI	59	3	False	red	40	[1350 1830  405  675]	[ 90 570 405 675]
380.169	0.2	758107	758346	BlankScreen	ANTI	59	3	False	red	40	[1350 1830  405  675]	[ 90 570 405 675]
380.408	1.0	758346	759346	ELCue	ANTI	59	3	False	red	40	[1350 1830  405  675]	[ 90 570 405 675]
381.834	2.0	759772	761798	ShowFixation	VGS	60	3	False	lime	40	[ 90 570 405 675]	[1350 1830  405  675]
383.86	0.2	761798	762033	BlankScreen	VGS	60	3	False	lime	40	[ 90 570 405 675]	[1350 1830  405  675]
384.095	1.0	762033	763033	ELCue	VGS	60	3	False	lime	40	[ 90 570 405 675]	[1350 1830  405  675]
385.518	6.0	763456	769485	ShowFixation	VGS	61	3	False	lime	600	[1350 1830  405  675]	[ 90 570 405 675]
391.547	0.2	769485	769724	BlankScreen	VGS	61	3	False	lime	600	[1350 1830  405  675]	[ 90 570 405 675]
391.786	1.0	769724	770724	ELCue	VGS	61	3	False	lime	600	[1350 1830  405  675]	[ 90 570 405 675]
393.213	6.0	771151	777176	ShowFixation	VGS	62	3	False	lime	40	[ 90 570 405 675]	[1350 1830  405  675]
399.238	0.2	777176	777415	BlankScreen	VGS	62	3	False	lime	40	[ 90 570 405 675]	[1350 1830  405  675]
399.477	1.0	777415	778415	ELCue	VGS	62	3	False	lime	40	[ 90 570 405 675]	[1350 1830  405  675]
400.9	6.0	778838	784867	ShowFixation	ANTI	63	3	False	red	600	[ 90 570 405 675]	[1350 1830  405  675]
406.929	0.2	784867	785106	BlankScreen	ANTI	63	3	False	red	600	[ 90 570 405 675]	[1350 1830  405  675]
407.169	1.0	785107	786107	ELCue	ANTI	63	3	False	red	600	[ 90 570 405 675]	[1350 1830  405  675]
408.592	6.0	786530	792559	ShowFixation	VGS	64	3	False	lime	40	[ 90 570 405 675]	[1350 1830  405  675]
414.621	0.2	792559	792798	BlankScreen	VGS	64	3	False	lime	40	[ 90 570 405 675]	[1350 1830  405  675]
414.86	1.0	792798	793798	ELCue	VGS	64	3	False	lime	40	[ 90 570 405 675]	[1350 1830  405  675]
416.282	2.0	794220	796249	ShowFixation	VGS	65	3	False	lime	460	[1035 1515  405  675]	[405 885 405 675]
418.311	0.2	796249	796485	BlankScreen	VGS	65	3	False	lime	460	[1035 1515  405  675]	[405 885 405 675]
418.547	1.0	796485	797485	ELCue	VGS	65	3	False	lime	460	[1035 1515  405  675]	[405 885 405 675]
419.97	6.0	797908	803936	ShowFixation	ANTI	66	3	False	red	460	[405 885 405 675]	[1035 1515  405  675]
425.998	0.2	803936	804176	BlankScreen	ANTI	66	3	False	red	460	[405 885 405 675]	[1035 1515  405  675]
426.238	1.0	804176	805176	ELCue	ANTI	66	3	False	red	460	[405 885 405 675]	[1035 1515  405  675]
427.662	2.0	805600	807627	ShowFixation	ANTI	67	3	False	red	40	[1350 1830  405  675]	[ 90 570 405 675]
429.689	0.2	807627	807863	BlankScreen	ANTI	67	3	False	red	40	[1350 1830  405  675]	[ 90 570 405 675]
429.925	1.0	807863	808863	ELCue	ANTI	67	3	False	red	40	[1350 1830  405  675]	[ 90 570 405 675]
431.344	6.0	809282	815314	ShowFixation	VGS	68	3	False	lime	460	[1035 1515  405  675]	[405 885 405 675]
437.376	0.2	815314	815554	BlankScreen	VGS	68	3	False	lime	460	[1035 1515  405  675]	[405 885 405 675]
437.616	1.0	815554	816554	ELCue	VGS	68	3	False	lime	460	[1035 1515  405  675]	[405 885 405 675]
439.042	2.0	816980	819022	ShowFixation	ANTI	69	3	False	red	40	[1350 1830  405  675]	[ 90 570 405 675]
441.084	0.2	819022	819257	BlankScreen	ANTI	69	3	False	red	40	[1350 1830  405  675]	[ 90 570 405 675]
441.319	1.0	819257	820257	ELCue	ANTI	69	3	False	red	40	[1350 1830  405  675]	[ 90 570 405 675]
442.741	6.0	820679	826709	ShowFixation	ANTI	70	3	False	red	180	[1035 1515  405  675]	[405 885 405 675]
448.771	0.2	826709	826948	BlankScreen	ANTI	70	3	False	red	180	[1035 1515  405  675]	[405 885 405 675]
449.01	1.0	826948	827948	ELCue	ANTI	70	3	False	red	180	[1035 1515  405  675]	[405 885 405 675]
450.4	2.0	828338	830366	ShowFixation	VGS	71	3	False	lime	600	[1350 1830  405  675]	[ 90 570 405 675]
452.428	0.2	830366	830602	BlankScreen	VGS	71	3	False	lime	600	[1350 1830  405  675]	[ 90 570 405 675]
452.664	1.0	830602	831602	ELCue	VGS	71	3	False	lime	600	[1350 1830  405  675]	[ 90 570 405 675]
454.087	2.0	832025	834053	ShowFixation	ANTI	72	3	False	red	180	[1035 1515  405  675]	[405 885 405 675]
456.115	0.2	834053	834289	BlankScreen	ANTI	72	3	False	red	180	[1035 1515  405  675]	[405 885 405 675]
456.351	1.0	834289	835289	ELCue	ANTI	72	3	False	red	180	[1035 1515  405  675]	[405 885 405 675]
457.742	6.0	835680	841707	ShowFixation	ANTI	73	3	False	red	40	[1350 1830  405  675]	[ 90 570 405 675]
463.769	0.2	841707	841946	BlankScreen	ANTI	73	3	False	red	40	[1350 1830  405  675]	[ 90 570 405 675]
464.008	1.0	841946	842946	ELCue	ANTI	73	3	False	red	40	[1350 1830  405  675]	[ 90 570 405 675]
465.429	2.0	843367	845398	ShowFixation	VGS	74	3	False	lime	180	[405 885 405 675]	[1035 1515  405  675]
467.46	0.2	845398	845633	BlankScreen	VGS	74	3	False	lime	180	[405 885 405 675]	[1035 1515  405  675]
467.695	1.0	845633	846633	ELCue	VGS	74	3	False	lime	180	[405 885 405 675]	[1035 1515  405  675]
469.122	2.0	847060	849085	ShowFixation	ANTI	75	3	False	red	460	[405 885 405 675]	[1035 1515  405  675]
471.147	0.2	849085	849320	BlankScreen	ANTI	75	3	False	red	460	[405 885 405 675]	[1035 1515  405  675]
471.382	1.0	849320	850320	ELCue	ANTI	75	3	False	red	460	[405 885 405 675]	[1035 1515  405  675]
472.805	6.0	850743	856772	ShowFixation	ANTI	76	3	False	red	180	[1035 1515  405  675]	[405 885 405 675]
478.834	0.2	856772	857011	BlankScreen	ANTI	76	3	False	red	180	[1035 1515  405  675]	[405 885 405 675]
479.073	1.0	857011	858011	ELCue	ANTI	76	3	False	red	180	[1035 1515  405  675]	[405 885 405 675]
480.496	2.0	858434	860463	ShowFixation	ANTI	77	3	False	red	600	[ 90 570 405 675]	[1350 1830  405  675]
482.525	0.2	860463	860698	BlankScreen	ANTI	77	3	False	red	600	[ 90 570 405 675]	[1350 1830  405  675]
482.76	1.0	860698	861698	ELCue	ANTI	77	3	False	red	600	[ 90 570 405 675]	[1350 1830  405  675]
484.187	2.0	862125	864150	ShowFixation	VGS	78	3	False	lime	180	[405 885 405 675]	[1035 1515  405  675]
486.212	0.2	864150	864385	BlankScreen	VGS	78	3	False	lime	180	[405 885 405 675]	[1035 1515  405  675]
486.447	1.0	864385	865385	ELCue	VGS	78	3	False	lime	180	[405 885 405 675]	[1035 1515  405  675]
487.872	6.0	865810	871837	ShowFixation	VGS	79	3	False	lime	600	[1350 1830  405  675]	[ 90 570 405 675]
493.899	0.2	871837	872076	BlankScreen	VGS	79	3	False	lime	600	[1350 1830  405  675]	[ 90 570 405 675]
494.138	1.0	872076	873076	ELCue	VGS	79	3	False	lime	600	[1350 1830  405  675]	[ 90 570 405 675]
495.563	6.0	873501	879528	ShowFixation	VGS	80	3	False	lime	180	[405 885 405 675]	[1035 1515  405  675]
501.59	0.2	879528	879767	BlankScreen	VGS	80	3	False	lime	180	[405 885 405 675]	[1035 1515  405  675]
501.829	1.0	879767	880767	ELCue	VGS	80	3	False	lime	180	[405 885 405 675]	[1035 1515  405  675]
527.389	2.0	905327	907359	ShowFixation	ANTI	81	4	False	red	180	[1035 1515  405  675]	[405 885 405 675]
529.421	0.2	907359	907594	BlankScreen	ANTI	81	4	False	red	180	[1035 1515  405  675]	[405 885 405 675]
529.657	1.0	907595	908595	ELCue	ANTI	81	4	False	red	180	[1035 1515  405  675]	[405 885 405 675]
531.08	6.0	909018	915047	ShowFixation	VGS	82	4	False	lime	600	[1350 1830  405  675]	[ 90 570 405 675]
537.109	0.2	915047	915286	BlankScreen	VGS	82	4	False	lime	600	[1350 1830  405  675]	[ 90 570 405 675]
537.348	1.0	915286	916286	ELCue	VGS	82	4	False	lime	600	[1350 1830  405  675]	[ 90 570 405 675]
538.748	6.0	916686	922721	ShowFixation	ANTI	83	4	False	red	600	[ 90 570 405 675]	[1350 1830  405  675]
544.783	0.2	922721	922960	BlankScreen	ANTI	83	4	False	red	600	[ 90 570 405 675]	[1350 1830  405  675]
545.022	1.0	922960	923960	ELCue	ANTI	83	4	False	red	600	[ 90 570 405 675]	[1350 1830  405  675]
546.448	2.0	924386	926412	ShowFixation	ANTI	84	4	False	red	600	[ 90 570 405 675]	[1350 1830  405  675]
548.474	0.2	926412	926647	BlankScreen	ANTI	84	4	False	red	600	[ 90 570 405 675]	[1350 1830  405  675]
548.709	1.0	926647	927647	ELCue	ANTI	84	4	False	red	600	[ 90 570 405 675]	[1350 1830  405  675]
550.132	6.0	928070	934099	ShowFixation	ANTI	85	4	False	red	180	[1035 1515  405  675]	[405 885 405 675]
556.161	0.2	934099	934338	BlankScreen	ANTI	85	4	False	red	180	[1035 1515  405  675]	[405 885 405 675]
556.4	1.0	934338	935338	ELCue	ANTI	85	4	False	red	180	[1035 1515  405  675]	[405 885 405 675]
557.806	6.0	935744	941773	ShowFixation	ANTI	86	4	False	red	40	[1350 1830  405  675]	[ 90 570 405 675]
563.835	0.2	941773	942012	BlankScreen	ANTI	86	4	False	red	40	[1350 1830  405  675]	[ 90 570 405 675]
564.074	1.0	942012	943012	ELCue	ANTI	86	4	False	red	40	[1350 1830  405  675]	[ 90 570 405 675]
565.501	2.0	943439	945464	ShowFixation	ANTI	87	4	False	red	180	[1035 1515  405  675]	[405 885 405 675]
567.526	0.2	945464	945699	BlankScreen	ANTI	87	4	False	red	180	[1035 1515  405  675]	[405 885 405 675]
567.761	1.0	945699	946699	ELCue	ANTI	87	4	False	red	180	[1035 1515  405  675]	[405 885 405 675]
569.184	6.0	947122	953151	ShowFixation	ANTI	88	4	False	red	180	[1035 1515  405  675]	[405 885 405 675]
575.213	0.2	953151	953390	BlankScreen	ANTI	88	4	False	red	180	[1035 1515  405  675]	[405 885 405 675]
575.452	1.0	953390	954390	ELCue	ANTI	88	4	False	red	180	[1035 1515  405  675]	[405 885 405 675]
576.876	6.0	954814	960842	ShowFixation	ANTI	89	4	False	red	40	[1350 1830  405  675]	[ 90 570 405 675]
582.904	0.2	960842	961081	BlankScreen	ANTI	89	4	False	red	40	[1350 1830  405  675]	[ 90 570 405 675]
583.143	1.0	961081	962081	ELCue	ANTI	89	4	False	red	40	[1350 1830  405  675]	[ 90 570 405 675]
584.566	2.0	962504	964533	ShowFixation	ANTI	90	4	False	red	600	[ 90 570 405 675]	[1350 1830  405  675]
586.595	0.2	964533	964768	BlankScreen	ANTI	90	4	False	red	600	[ 90 570 405 675]	[1350 1830  405  675]
586.83	1.0	964768	965768	ELCue	ANTI	90	4	False	red	600	[ 90 570 405 675]	[1350 1830  405  675]
588.255	2.0	966193	968220	ShowFixation	ANTI	91	4	False	red	460	[405 885 405 675]	[1035 1515  405  675]
590.282	0.2	968220	968455	BlankScreen	ANTI	91	4	False	red	460	[405 885 405 675]	[1035 1515  405  675]
590.517	1.0	968455	969455	ELCue	ANTI	91	4	False	red	460	[405 885 405 675]	[1035 1515  405  675]
591.941	6.0	969879	975907	ShowFixation	VGS	92	4	False	lime	600	[1350 1830  405  675]	[ 90 570 405 675]
597.969	0.2	975907	976146	BlankScreen	VGS	92	4	False	lime	600	[1350 1830  405  675]	[ 90 570 405 675]
598.208	1.0	976146	977146	ELCue	VGS	92	4	False	lime	600	[1350 1830  405  675]	[ 90 570 405 675]
599.595	6.0	977533	983564	ShowFixation	ANTI	93	4	False	red	600	[ 90 570 405 675]	[1350 1830  405  675]
605.626	0.2	983564	983804	BlankScreen	ANTI	93	4	False	red	600	[ 90 570 405 675]	[1350 1830  405  675]
605.866	1.0	983804	984804	ELCue	ANTI	93	4	False	red	600	[ 90 570 405 675]	[1350 1830  405  675]
607.289	6.0	985227	991255	ShowFixation	VGS	94	4	False	lime	40	[ 90 570 405 675]	[1350 1830  405  675]
613.317	0.2	991255	991495	BlankScreen	VGS	94	4	False	lime	40	[ 90 570 405 675]	[1350 1830  405  675]
613.557	1.0	991495	992495	ELCue	VGS	94	4	False	lime	40	[ 90 570 405 675]	[1350 1830  405  675]
614.977	2.0	992915	994946	ShowFixation	ANTI	95	4	False	red	40	[1350 1830  405  675]	[ 90 570 405 675]
617.008	0.2	994946	995182	BlankScreen	ANTI	95	4	False	red	40	[1350 1830  405  675]	[ 90 570 405 675]
617.244	1.0	995182	996182	ELCue	ANTI	95	4	False	red	40	[1350 1830  405  675]	[ 90 570 405 675]
618.668	6.0	996606	1002633	ShowFixation	VGS	96	4	False	lime	180	[405 885 405 675]	[1035 1515  405  675]
624.695	0.2	1002633	1002872	BlankScreen	VGS	96	4	False	lime	180	[405 885 405 675]	[1035 1515  405  675]
624.934	1.0	1002872	1003872	ELCue	VGS	96	4	False	lime	180	[405 885 405 675]	[1035 1515  405  675]
626.355	2.0	1004293	1006324	ShowFixation	VGS	97	4	False	lime	460	[1035 1515  405  675]	[405 885 405 675]
628.386	0.2	1006324	1006559	BlankScreen	VGS	97	4	False	lime	460	[1035 1515  405  675]	[405 885 405 675]
628.621	1.0	1006559	1007559	ELCue	VGS	97	4	False	lime	460	[1035 1515  405  675]	[405 885 405 675]
630.047	6.0	1007985	1014012	ShowFixation	VGS	98	4	False	lime	460	[1035 1515  405  675]	[405 885 405 675]
636.074	0.2	1014012	1014250	BlankScreen	VGS	98	4	False	lime	460	[1035 1515  405  675]	[405 885 405 675]
636.312	1.0	1014250	1015250	ELCue	VGS	98	4	False	lime	460	[1035 1515  405  675]	[405 885 405 675]
637.737	2.0	1015675	1017702	ShowFixation	VGS	99	4	False	lime	600	[1350 1830  405  675]	[ 90 570 405 675]
639.764	0.2	1017702	1017937	BlankScreen	VGS	99	4	False	lime	600	[1350 1830  405  675]	[ 90 570 405 675]
639.999	1.0	1017937	1018937	ELCue	VGS	99	4	False	lime	600	[1350 1830  405  675]	[ 90 570 405 675]
641.424	2.0	1019362	1021389	ShowFixation	ANTI	100	4	False	red	40	[1350 1830  405  675]	[ 90 570 405 675]
643.451	0.2	1021389	1021624	BlankScreen	ANTI	100	4	False	red	40	[1350 1830  405  675]	[ 90 570 405 675]
643.686	1.0	1021624	1022624	ELCue	ANTI	100	4	False	red	40	[1350 1830  405  675]	[ 90 570 405 675]
645.105	2.0	1023043	1025076	ShowFixation	ANTI	101	4	False	red	460	[405 885 405 675]	[1035 1515  405  675]
647.138	0.2	1025076	1025312	BlankScreen	ANTI	101	4	False	red	460	[405 885 405 675]	[1035 1515  405  675]
647.374	1.0	1025312	1026312	ELCue	ANTI	101	4	False	red	460	[405 885 405 675]	[1035 1515  405  675]
648.796	2.0	1026734	1028763	ShowFixation	VGS	102	4	False	lime	40	[ 90 570 405 675]	[1350 1830  405  675]
650.826	0.2	1028764	1028998	BlankScreen	VGS	102	4	False	lime	40	[ 90 570 405 675]	[1350 1830  405  675]
651.06	1.0	1028998	1029998	ELCue	VGS	102	4	False	lime	40	[ 90 570 405 675]	[1350 1830  405  675]
652.485	2.0	1030423	1032450	ShowFixation	VGS	103	4	False	lime	180	[405 885 405 675]	[1035 1515  405  675]
654.513	0.2	1032451	1032686	BlankScreen	VGS	103	4	False	lime	180	[405 885 405 675]	[1035 1515  405  675]
654.748	1.0	1032686	1033686	ELCue	VGS	103	4	False	lime	180	[405 885 405 675]	[1035 1515  405  675]
656.166	6.0	1034104	1040138	ShowFixation	ANTI	104	4	False	red	460	[405 885 405 675]	[1035 1515  405  675]
662.2	0.2	1040138	1040377	BlankScreen	ANTI	104	4	False	red	460	[405 885 405 675]	[1035 1515  405  675]
662.439	1.0	1040377	1041377	ELCue	ANTI	104	4	False	red	460	[405 885 405 675]	[1035 1515  405  675]
663.858	6.0	1041796	1047829	ShowFixation	ANTI	105	4	False	red	460	[405 885 405 675]	[1035 1515  405  675]
669.891	0.2	1047829	1048068	BlankScreen	ANTI	105	4	False	red	460	[405 885 405 675]	[1035 1515  405  675]
670.13	1.0	1048068	1049068	ELCue	ANTI	105	4	False	red	460	[405 885 405 675]	[1035 1515  405  675]
671.554	2.0	1049492	1051520	ShowFixation	VGS	106	4	False	lime	40	[ 90 570 405 675]	[1350 1830  405  675]
673.582	0.2	1051520	1051755	BlankScreen	VGS	106	4	False	lime	40	[ 90 570 405 675]	[1350 1830  405  675]
673.817	1.0	1051755	1052755	ELCue	VGS	106	4	False	lime	40	[ 90 570 405 675]	[1350 1830  405  675]
675.238	6.0	1053176	1059207	ShowFixation	VGS	107	4	False	lime	460	[1035 1515  405  675]	[405 885 405 675]
681.269	0.2	1059207	1059446	BlankScreen	VGS	107	4	False	lime	460	[1035 1515  405  675]	[405 885 405 675]
681.508	1.0	1059446	1060446	ELCue	VGS	107	4	False	lime	460	[1035 1515  405  675]	[405 885 405 675]
682.928	6.0	1060866	1066897	ShowFixation	VGS	108	4	False	lime	40	[ 90 570 405 675]	[1350 1830  405  675]
688.959	0.2	1066897	1067137	BlankScreen	VGS	108	4	False	lime	40	[ 90 570 405 675]	[1350 1830  405  675]
689.199	1.0	1067137	1068137	ELCue	VGS	108	4	False	lime	40	[ 90 570 405 675]	[1350 1830  405  675]
690.617	2.0	1068555	1070588	ShowFixation	VGS	109	4	False	lime	460	[1035 1515  405  675]	[405 885 405 675]
692.65	0.2	1070588	1070824	BlankScreen	VGS	109	4	False	lime	460	[1035 1515  405  675]	[405 885 405 675]
692.886	1.0	1070824	1071824	ELCue	VGS	109	4	False	lime	460	[1035 1515  405  675]	[405 885 405 675]
694.313	2.0	1072251	1074275	ShowFixation	VGS	110	4	False	lime	600	[1350 1830  405  675]	[ 90 570 405 675]
696.337	0.2	1074275	1074511	BlankScreen	VGS	110	4	False	lime	600	[1350 1830  405  675]	[ 90 570 405 675]
696.573	1.0	1074511	1075511	ELCue	VGS	110	4	False	lime	600	[1350 1830  405  675]	[ 90 570 405 675]
697.995	2.0	1075933	1077962	ShowFixation	VGS	111	4	False	lime	180	[405 885 405 675]	[1035 1515  405  675]
700.024	0.2	1077962	1078198	BlankScreen	VGS	111	4	False	lime	180	[405 885 405 675]	[1035 1515  405  675]
700.26	1.0	1078198	1079198	ELCue	VGS	111	4	False	lime	180	[405 885 405 675]	[1035 1515  405  675]
701.683	6.0	1079621	1085649	ShowFixation	VGS	112	4	False	lime	180	[405 885 405 675]	[1035 1515  405  675]
707.711	0.2	1085649	1085889	BlankScreen	VGS	112	4	False	lime	180	[405 885 405 675]	[1035 1515  405  675]
707.951	1.0	1085889	1086889	ELCue	VGS	112	4	False	lime	180	[405 885 405 675]	[1035 1515  405  675]
