onset	duration	startTime	stopTime	eventIdentifier	trial_type	trial_number	block_number	is_practice	fixation_color	cue_side	aoi_correct	aoi_incorrect
0.147	2.0	1176339	1178379	ShowFixation	ANTI	1	1	True	red	180	[1035 1515  405  675]	[405 885 405 675]
2.187	0.2	1178379	1178615	BlankScreen	ANTI	1	1	True	red	180	[1035 1515  405  675]	[405 885 405 675]
2.423	1.0	1178615	1179656	ELCue	ANTI	1	1	True	red	180	[1035 1515  405  675]	[405 885 405 675]
4.021	6.0	1180213	1186700	ShowFixation	VGS	2	1	True	lime	40	[ 90 570 405 675]	[1350 1830  405  675]
10.508	0.2	1186700	1186939	BlankScreen	VGS	2	1	True	lime	40	[ 90 570 405 675]	[1350 1830  405  675]
10.747	1.0	1186939	1187980	ELCue	VGS	2	1	True	lime	40	[ 90 570 405 675]	[1350 1830  405  675]
12.207	6.0	1188399	1195025	ShowFixation	ANTI	3	1	True	red	180	[1035 1515  405  675]	[405 885 405 675]
18.833	0.2	1195025	1195264	BlankScreen	ANTI	3	1	True	red	180	[1035 1515  405  675]	[405 885 405 675]
19.072	1.0	1195264	1196305	ELCue	ANTI	3	1	True	red	180	[1035 1515  405  675]	[405 885 405 675]
20.531	2.0	1196723	1199350	ShowFixation	ANTI	4	1	True	red	460	[405 885 405 675]	[1035 1515  405  675]
23.159	0.2	1199351	1199585	BlankScreen	ANTI	4	1	True	red	460	[405 885 405 675]	[1035 1515  405  675]
23.393	1.0	1199585	1200626	ELCue	ANTI	4	1	True	red	460	[405 885 405 675]	[1035 1515  405  675]
24.852	6.0	1201044	1207672	ShowFixation	ANTI	5	1	True	red	40	[1350 1830  405  675]	[ 90 570 405 675]
31.48	0.2	1207672	1207911	BlankScreen	ANTI	5	1	True	red	40	[1350 1830  405  675]	[ 90 570 405 675]
31.719	1.0	1207911	1208951	ELCue	ANTI	5	1	True	red	40	[1350 1830  405  675]	[ 90 570 405 675]
33.174	6.0	1209366	1215997	ShowFixation	VGS	6	1	True	lime	180	[405 885 405 675]	[1035 1515  405  675]
39.805	0.2	1215997	1216236	BlankScreen	VGS	6	1	True	lime	180	[405 885 405 675]	[1035 1515  405  675]
40.044	1.0	1216236	1217276	ELCue	VGS	6	1	True	lime	180	[405 885 405 675]	[1035 1515  405  675]
41.5	2.0	1217692	1220321	ShowFixation	ANTI	7	1	True	red	600	[ 90 570 405 675]	[1350 1830  405  675]
44.129	0.2	1220321	1220557	BlankScreen	ANTI	7	1	True	red	600	[ 90 570 405 675]	[1350 1830  405  675]
44.365	1.0	1220557	1221597	ELCue	ANTI	7	1	True	red	600	[ 90 570 405 675]	[1350 1830  405  675]
45.823	6.0	1222015	1228642	ShowFixation	VGS	8	1	True	lime	600	[1350 1830  405  675]	[ 90 570 405 675]
52.45	0.2	1228642	1228882	BlankScreen	VGS	8	1	True	lime	600	[1350 1830  405  675]	[ 90 570 405 675]
52.69	1.0	1228882	1229922	ELCue	VGS	8	1	True	lime	600	[1350 1830  405  675]	[ 90 570 405 675]
54.15	2.0	1230342	1232967	ShowFixation	VGS	9	1	True	lime	600	[1350 1830  405  675]	[ 90 570 405 675]
56.775	0.2	1232967	1233203	BlankScreen	VGS	9	1	True	lime	600	[1350 1830  405  675]	[ 90 570 405 675]
57.011	1.0	1233203	1234242	ELCue	VGS	9	1	True	lime	600	[1350 1830  405  675]	[ 90 570 405 675]
58.468	2.0	1234660	1237271	ShowFixation	VGS	10	1	True	lime	40	[ 90 570 405 675]	[1350 1830  405  675]
61.079	0.2	1237271	1237490	BlankScreen	VGS	10	1	True	lime	40	[ 90 570 405 675]	[1350 1830  405  675]
61.298	1.0	1237490	1238513	ELCue	VGS	10	1	True	lime	40	[ 90 570 405 675]	[1350 1830  405  675]
62.74	2.0	1238932	1241559	ShowFixation	VGS	11	1	True	lime	460	[1035 1515  405  675]	[405 885 405 675]
65.367	0.2	1241559	1241794	BlankScreen	VGS	11	1	True	lime	460	[1035 1515  405  675]	[405 885 405 675]
65.602	1.0	1241794	1242835	ELCue	VGS	11	1	True	lime	460	[1035 1515  405  675]	[405 885 405 675]
67.06	6.0	1243252	1249880	ShowFixation	ANTI	12	1	True	red	460	[405 885 405 675]	[1035 1515  405  675]
73.688	0.2	1249880	1250119	BlankScreen	ANTI	12	1	True	red	460	[405 885 405 675]	[1035 1515  405  675]
73.927	1.0	1250119	1251160	ELCue	ANTI	12	1	True	red	460	[405 885 405 675]	[1035 1515  405  675]
75.387	6.0	1251579	1258205	ShowFixation	ANTI	13	1	True	red	600	[ 90 570 405 675]	[1350 1830  405  675]
82.013	0.2	1258205	1258444	BlankScreen	ANTI	13	1	True	red	600	[ 90 570 405 675]	[1350 1830  405  675]
82.252	1.0	1258444	1259485	ELCue	ANTI	13	1	True	red	600	[ 90 570 405 675]	[1350 1830  405  675]
83.706	2.0	1259898	1262530	ShowFixation	ANTI	14	1	True	red	40	[1350 1830  405  675]	[ 90 570 405 675]
86.338	0.2	1262530	1262765	BlankScreen	ANTI	14	1	True	red	40	[1350 1830  405  675]	[ 90 570 405 675]
86.573	1.0	1262765	1263806	ELCue	ANTI	14	1	True	red	40	[1350 1830  405  675]	[ 90 570 405 675]
88.033	6.0	1264225	1270851	ShowFixation	VGS	15	1	True	lime	460	[1035 1515  405  675]	[405 885 405 675]
94.659	0.2	1270851	1271090	BlankScreen	VGS	15	1	True	lime	460	[1035 1515  405  675]	[405 885 405 675]
94.898	1.0	1271090	1272131	ELCue	VGS	15	1	True	lime	460	[1035 1515  405  675]	[405 885 405 675]
96.358	2.0	1272550	1275175	ShowFixation	VGS	16	1	True	lime	180	[405 885 405 675]	[1035 1515  405  675]
98.983	0.2	1275175	1275411	BlankScreen	VGS	16	1	True	lime	180	[405 885 405 675]	[1035 1515  405  675]
99.219	1.0	1275411	1276450	ELCue	VGS	16	1	True	lime	180	[405 885 405 675]	[1035 1515  405  675]
137.159	2.0	1313351	1315383	ShowFixation	ANTI	17	2	False	red	600	[ 90 570 405 675]	[1350 1830  405  675]
139.191	0.2	1315383	1315617	BlankScreen	ANTI	17	2	False	red	600	[ 90 570 405 675]	[1350 1830  405  675]
139.426	1.0	1315618	1316618	ELCue	ANTI	17	2	False	red	600	[ 90 570 405 675]	[1350 1830  405  675]
140.846	6.0	1317038	1323069	ShowFixation	VGS	18	2	False	lime	460	[1035 1515  405  675]	[405 885 405 675]
146.877	0.2	1323069	1323308	BlankScreen	VGS	18	2	False	lime	460	[1035 1515  405  675]	[405 885 405 675]
147.117	1.0	1323309	1324309	ELCue	VGS	18	2	False	lime	460	[1035 1515  405  675]	[405 885 405 675]
148.54	2.0	1324732	1326761	ShowFixation	VGS	19	2	False	lime	600	[1350 1830  405  675]	[ 90 570 405 675]
150.569	0.2	1326761	1326996	BlankScreen	VGS	19	2	False	lime	600	[1350 1830  405  675]	[ 90 570 405 675]
150.804	1.0	1326996	1327996	ELCue	VGS	19	2	False	lime	600	[1350 1830  405  675]	[ 90 570 405 675]
152.221	2.0	1328413	1330448	ShowFixation	VGS	20	2	False	lime	40	[ 90 570 405 675]	[1350 1830  405  675]
154.256	0.2	1330448	1330683	BlankScreen	VGS	20	2	False	lime	40	[ 90 570 405 675]	[1350 1830  405  675]
154.491	1.0	1330683	1331683	ELCue	VGS	20	2	False	lime	40	[ 90 570 405 675]	[1350 1830  405  675]
155.909	2.0	1332101	1334135	ShowFixation	VGS	21	2	False	lime	600	[1350 1830  405  675]	[ 90 570 405 675]
157.943	0.2	1334135	1334370	BlankScreen	VGS	21	2	False	lime	600	[1350 1830  405  675]	[ 90 570 405 675]
158.178	1.0	1334370	1335370	ELCue	VGS	21	2	False	lime	600	[1350 1830  405  675]	[ 90 570 405 675]
159.599	2.0	1335791	1337821	ShowFixation	VGS	22	2	False	lime	180	[405 885 405 675]	[1035 1515  405  675]
161.629	0.2	1337821	1338057	BlankScreen	VGS	22	2	False	lime	180	[405 885 405 675]	[1035 1515  405  675]
161.865	1.0	1338057	1339057	ELCue	VGS	22	2	False	lime	180	[405 885 405 675]	[1035 1515  405  675]
163.282	6.0	1339474	1345508	ShowFixation	ANTI	23	2	False	red	460	[405 885 405 675]	[1035 1515  405  675]
169.316	0.2	1345508	1345748	BlankScreen	ANTI	23	2	False	red	460	[405 885 405 675]	[1035 1515  405  675]
169.556	1.0	1345748	1346748	ELCue	ANTI	23	2	False	red	460	[405 885 405 675]	[1035 1515  405  675]
170.974	6.0	1347166	1353199	ShowFixation	VGS	24	2	False	lime	180	[405 885 405 675]	[1035 1515  405  675]
177.007	0.2	1353199	1353439	BlankScreen	VGS	24	2	False	lime	180	[405 885 405 675]	[1035 1515  405  675]
177.247	1.0	1353439	1354439	ELCue	VGS	24	2	False	lime	180	[405 885 405 675]	[1035 1515  405  675]
178.67	6.0	1354862	1360890	ShowFixation	ANTI	25	2	False	red	460	[405 885 405 675]	[1035 1515  405  675]
184.698	0.2	1360890	1361130	BlankScreen	ANTI	25	2	False	red	460	[405 885 405 675]	[1035 1515  405  675]
184.938	1.0	1361130	1362130	ELCue	ANTI	25	2	False	red	460	[405 885 405 675]	[1035 1515  405  675]
186.359	6.0	1362551	1368581	ShowFixation	VGS	26	2	False	lime	40	[ 90 570 405 675]	[1350 1830  405  675]
192.389	0.2	1368581	1368820	BlankScreen	VGS	26	2	False	lime	40	[ 90 570 405 675]	[1350 1830  405  675]
192.628	1.0	1368820	1369820	ELCue	VGS	26	2	False	lime	40	[ 90 570 405 675]	[1350 1830  405  675]
194.051	2.0	1370243	1372272	ShowFixation	VGS	27	2	False	lime	180	[405 885 405 675]	[1035 1515  405  675]
196.08	0.2	1372272	1372507	BlankScreen	VGS	27	2	False	lime	180	[405 885 405 675]	[1035 1515  405  675]
196.315	1.0	1372507	1373507	ELCue	VGS	27	2	False	lime	180	[405 885 405 675]	[1035 1515  405  675]
197.737	6.0	1373929	1379959	ShowFixation	VGS	28	2	False	lime	600	[1350 1830  405  675]	[ 90 570 405 675]
203.767	0.2	1379959	1380198	BlankScreen	VGS	28	2	False	lime	600	[1350 1830  405  675]	[ 90 570 405 675]
204.006	1.0	1380198	1381198	ELCue	VGS	28	2	False	lime	600	[1350 1830  405  675]	[ 90 570 405 675]
205.428	6.0	1381620	1387650	ShowFixation	ANTI	29	2	False	red	180	[1035 1515  405  675]	[405 885 405 675]
211.458	0.2	1387650	1387889	BlankScreen	ANTI	29	2	False	red	180	[1035 1515  405  675]	[405 885 405 675]
211.697	1.0	1387889	1388889	ELCue	ANTI	29	2	False	red	180	[1035 1515  405  675]	[405 885 405 675]
213.117	6.0	1389309	1395341	ShowFixation	VGS	30	2	False	lime	460	[1035 1515  405  675]	[405 885 405 675]
219.149	0.2	1395341	1395580	BlankScreen	VGS	30	2	False	lime	460	[1035 1515  405  675]	[405 885 405 675]
219.388	1.0	1395580	1396580	ELCue	VGS	30	2	False	lime	460	[1035 1515  405  675]	[405 885 405 675]
220.812	2.0	1397004	1399032	ShowFixation	ANTI	31	2	False	red	600	[ 90 570 405 675]	[1350 1830  405  675]
222.84	0.2	1399032	1399267	BlankScreen	ANTI	31	2	False	red	600	[ 90 570 405 675]	[1350 1830  405  675]
223.075	1.0	1399267	1400267	ELCue	ANTI	31	2	False	red	600	[ 90 570 405 675]	[1350 1830  405  675]
224.479	6.0	1400671	1406702	ShowFixation	ANTI	32	2	False	red	600	[ 90 570 405 675]	[1350 1830  405  675]
230.51	0.2	1406702	1406941	BlankScreen	ANTI	32	2	False	red	600	[ 90 570 405 675]	[1350 1830  405  675]
230.749	1.0	1406941	1407941	ELCue	ANTI	32	2	False	red	600	[ 90 570 405 675]	[1350 1830  405  675]
232.169	2.0	1408361	1410393	ShowFixation	ANTI	33	2	False	red	460	[405 885 405 675]	[1035 1515  405  675]
234.201	0.2	1410393	1410628	BlankScreen	ANTI	33	2	False	red	460	[405 885 405 675]	[1035 1515  405  675]
234.436	1.0	1410628	1411628	ELCue	ANTI	33	2	False	red	460	[405 885 405 675]	[1035 1515  405  675]
235.853	2.0	1412045	1414080	ShowFixation	ANTI	34	2	False	red	40	[1350 1830  405  675]	[ 90 570 405 675]
237.888	0.2	1414080	1414315	BlankScreen	ANTI	34	2	False	red	40	[1350 1830  405  675]	[ 90 570 405 675]
238.123	1.0	1414315	1415315	ELCue	ANTI	34	2	False	red	40	[1350 1830  405  675]	[ 90 570 405 675]
239.545	6.0	1415737	1421767	ShowFixation	VGS	35	2	False	lime	40	[ 90 570 405 675]	[1350 1830  405  675]
245.575	0.2	1421767	1422006	BlankScreen	VGS	35	2	False	lime	40	[ 90 570 405 675]	[1350 1830  405  675]
245.815	1.0	1422007	1423007	ELCue	VGS	35	2	False	lime	40	[ 90 570 405 675]	[1350 1830  405  675]
247.235	2.0	1423427	1425458	ShowFixation	VGS	36	2	False	lime	460	[1035 1515  405  675]	[405 885 405 675]
249.267	0.2	1425459	1425693	BlankScreen	VGS	36	2	False	lime	460	[1035 1515  405  675]	[405 885 405 675]
249.501	1.0	1425693	1426693	ELCue	VGS	36	2	False	lime	460	[1035 1515  405  675]	[405 885 405 675]
250.924	2.0	1427116	1429145	ShowFixation	ANTI	37	2	False	red	180	[1035 1515  405  675]	[405 885 405 675]
252.953	0.2	1429145	1429380	BlankScreen	ANTI	37	2	False	red	180	[1035 1515  405  675]	[405 885 405 675]
253.188	1.0	1429380	1430380	ELCue	ANTI	37	2	False	red	180	[1035 1515  405  675]	[405 885 405 675]
254.61	2.0	1430802	1432832	ShowFixation	VGS	38	2	False	lime	460	[1035 1515  405  675]	[405 885 405 675]
256.64	0.2	1432832	1433067	BlankScreen	VGS	38	2	False	lime	460	[1035 1515  405  675]	[405 885 405 675]
256.875	1.0	1433067	1434067	ELCue	VGS	38	2	False	lime	460	[1035 1515  405  675]	[405 885 405 675]
258.296	6.0	1434488	1440519	ShowFixation	ANTI	39	2	False	red	600	[ 90 570 405 675]	[1350 1830  405  675]
264.327	0.2	1440519	1440758	BlankScreen	ANTI	39	2	False	red	600	[ 90 570 405 675]	[1350 1830  405  675]
264.566	1.0	1440758	1441758	ELCue	ANTI	39	2	False	red	600	[ 90 570 405 675]	[1350 1830  405  675]
265.968	2.0	1442160	1444193	ShowFixation	VGS	40	2	False	lime	40	[ 90 570 405 675]	[1350 1830  405  675]
268.001	0.2	1444193	1444428	BlankScreen	VGS	40	2	False	lime	40	[ 90 570 405 675]	[1350 1830  405  675]
268.237	1.0	1444429	1445429	ELCue	VGS	40	2	False	lime	40	[ 90 570 405 675]	[1350 1830  405  675]
269.66	6.0	1445852	1451881	ShowFixation	ANTI	41	2	False	red	40	[1350 1830  405  675]	[ 90 570 405 675]
275.689	0.2	1451881	1452120	BlankScreen	ANTI	41	2	False	red	40	[1350 1830  405  675]	[ 90 570 405 675]
275.928	1.0	1452120	1453120	ELCue	ANTI	41	2	False	red	40	[1350 1830  405  675]	[ 90 570 405 675]
277.406	6.0	1453598	1459638	ShowFixation	VGS	42	2	False	lime	600	[1350 1830  405  675]	[ 90 570 405 675]
283.446	0.2	1459638	1459878	BlankScreen	VGS	42	2	False	lime	600	[1350 1830  405  675]	[ 90 570 405 675]
283.686	1.0	1459878	1460878	ELCue	VGS	42	2	False	lime	600	[1350 1830  405  675]	[ 90 570 405 675]
285.11	2.0	1461302	1463329	ShowFixation	ANTI	43	2	False	red	460	[405 885 405 675]	[1035 1515  405  675]
287.137	0.2	1463329	1463565	BlankScreen	ANTI	43	2	False	red	460	[405 885 405 675]	[1035 1515  405  675]
287.373	1.0	1463565	1464565	ELCue	ANTI	43	2	False	red	460	[405 885 405 675]	[1035 1515  405  675]
288.79	2.0	1464982	1467016	ShowFixation	ANTI	44	2	False	red	40	[1350 1830  405  675]	[ 90 570 405 675]
290.824	0.2	1467016	1467252	BlankScreen	ANTI	44	2	False	red	40	[1350 1830  405  675]	[ 90 570 405 675]
291.06	1.0	1467252	1468252	ELCue	ANTI	44	2	False	red	40	[1350 1830  405  675]	[ 90 570 405 675]
292.476	2.0	1468668	1470703	ShowFixation	ANTI	45	2	False	red	180	[1035 1515  405  675]	[405 885 405 675]
294.511	0.2	1470703	1470939	BlankScreen	ANTI	45	2	False	red	180	[1035 1515  405  675]	[405 885 405 675]
294.747	1.0	1470939	1471939	ELCue	ANTI	45	2	False	red	180	[1035 1515  405  675]	[405 885 405 675]
296.17	6.0	1472362	1478390	ShowFixation	ANTI	46	2	False	red	40	[1350 1830  405  675]	[ 90 570 405 675]
302.198	0.2	1478390	1478630	BlankScreen	ANTI	46	2	False	red	40	[1350 1830  405  675]	[ 90 570 405 675]
302.438	1.0	1478630	1479630	ELCue	ANTI	46	2	False	red	40	[1350 1830  405  675]	[ 90 570 405 675]
303.863	6.0	1480055	1486081	ShowFixation	VGS	47	2	False	lime	180	[405 885 405 675]	[1035 1515  405  675]
309.889	0.2	1486081	1486320	BlankScreen	VGS	47	2	False	lime	180	[405 885 405 675]	[1035 1515  405  675]
310.128	1.0	1486320	1487320	ELCue	VGS	47	2	False	lime	180	[405 885 405 675]	[1035 1515  405  675]
311.551	6.0	1487743	1493772	ShowFixation	ANTI	48	2	False	red	180	[1035 1515  405  675]	[405 885 405 675]
317.58	0.2	1493772	1494011	BlankScreen	ANTI	48	2	False	red	180	[1035 1515  405  675]	[405 885 405 675]
317.819	1.0	1494011	1495011	ELCue	ANTI	48	2	False	red	180	[1035 1515  405  675]	[405 885 405 675]
360.402	2.0	1536594	1538621	ShowFixation	VGS	49	3	False	lime	460	[1035 1515  405  675]	[405 885 405 675]
362.429	0.2	1538621	1538856	BlankScreen	VGS	49	3	False	lime	460	[1035 1515  405  675]	[405 885 405 675]
362.664	1.0	1538856	1539856	ELCue	VGS	49	3	False	lime	460	[1035 1515  405  675]	[405 885 405 675]
364.087	2.0	1540279	1542307	ShowFixation	ANTI	50	3	False	red	460	[405 885 405 675]	[1035 1515  405  675]
366.115	0.2	1542307	1542542	BlankScreen	ANTI	50	3	False	red	460	[405 885 405 675]	[1035 1515  405  675]
366.35	1.0	1542542	1543542	ELCue	ANTI	50	3	False	red	460	[405 885 405 675]	[1035 1515  405  675]
367.769	2.0	1543961	1545994	ShowFixation	ANTI	51	3	False	red	40	[1350 1830  405  675]	[ 90 570 405 675]
369.802	0.2	1545994	1546230	BlankScreen	ANTI	51	3	False	red	40	[1350 1830  405  675]	[ 90 570 405 675]
370.038	1.0	1546230	1547230	ELCue	ANTI	51	3	False	red	40	[1350 1830  405  675]	[ 90 570 405 675]
371.424	2.0	1547616	1549649	ShowFixation	ANTI	52	3	False	red	40	[1350 1830  405  675]	[ 90 570 405 675]
373.457	0.2	1549649	1549884	BlankScreen	ANTI	52	3	False	red	40	[1350 1830  405  675]	[ 90 570 405 675]
373.692	1.0	1549884	1550884	ELCue	ANTI	52	3	False	red	40	[1350 1830  405  675]	[ 90 570 405 675]
375.092	2.0	1551284	1553319	ShowFixation	VGS	53	3	False	lime	460	[1035 1515  405  675]	[405 885 405 675]
377.127	0.2	1553319	1553554	BlankScreen	VGS	53	3	False	lime	460	[1035 1515  405  675]	[405 885 405 675]
377.362	1.0	1553554	1554554	ELCue	VGS	53	3	False	lime	460	[1035 1515  405  675]	[405 885 405 675]
378.78	6.0	1554972	1561006	ShowFixation	VGS	54	3	False	lime	180	[405 885 405 675]	[1035 1515  405  675]
384.814	0.2	1561006	1561245	BlankScreen	VGS	54	3	False	lime	180	[405 885 405 675]	[1035 1515  405  675]
385.053	1.0	1561245	1562245	ELCue	VGS	54	3	False	lime	180	[405 885 405 675]	[1035 1515  405  675]
386.473	6.0	1562665	1568697	ShowFixation	VGS	55	3	False	lime	460	[1035 1515  405  675]	[405 885 405 675]
392.505	0.2	1568697	1568936	BlankScreen	VGS	55	3	False	lime	460	[1035 1515  405  675]	[405 885 405 675]
392.744	1.0	1568936	1569936	ELCue	VGS	55	3	False	lime	460	[1035 1515  405  675]	[405 885 405 675]
394.152	6.0	1570344	1576371	ShowFixation	ANTI	56	3	False	red	460	[405 885 405 675]	[1035 1515  405  675]
400.179	0.2	1576371	1576610	BlankScreen	ANTI	56	3	False	red	460	[405 885 405 675]	[1035 1515  405  675]
400.418	1.0	1576610	1577610	ELCue	ANTI	56	3	False	red	460	[405 885 405 675]	[1035 1515  405  675]
401.841	6.0	1578033	1584062	ShowFixation	VGS	57	3	False	lime	600	[1350 1830  405  675]	[ 90 570 405 675]
407.87	0.2	1584062	1584301	BlankScreen	VGS	57	3	False	lime	600	[1350 1830  405  675]	[ 90 570 405 675]
408.109	1.0	1584301	1585301	ELCue	VGS	57	3	False	lime	600	[1350 1830  405  675]	[ 90 570 405 675]
409.53	6.0	1585722	1591753	ShowFixation	VGS	58	3	False	lime	40	[ 90 570 405 675]	[1350 1830  405  675]
415.561	0.2	1591753	1591992	BlankScreen	VGS	58	3	False	lime	40	[ 90 570 405 675]	[1350 1830  405  675]
415.8	1.0	1591992	1592992	ELCue	VGS	58	3	False	lime	40	[ 90 570 405 675]	[1350 1830  405  675]
417.219	6.0	1593411	1599444	ShowFixation	ANTI	59	3	False	red	600	[ 90 570 405 675]	[1350 1830  405  675]
423.252	0.2	1599444	1599683	BlankScreen	ANTI	59	3	False	red	600	[ 90 570 405 675]	[1350 1830  405  675]
423.491	1.0	1599683	1600683	ELCue	ANTI	59	3	False	red	600	[ 90 570 405 675]	[1350 1830  405  675]
424.914	2.0	1601106	1603135	ShowFixation	VGS	60	3	False	lime	40	[ 90 570 405 675]	[1350 1830  405  675]
426.943	0.2	1603135	1603370	BlankScreen	VGS	60	3	False	lime	40	[ 90 570 405 675]	[1350 1830  405  675]
427.178	1.0	1603370	1604370	ELCue	VGS	60	3	False	lime	40	[ 90 570 405 675]	[1350 1830  405  675]
428.584	2.0	1604776	1606805	ShowFixation	VGS	61	3	False	lime	180	[405 885 405 675]	[1035 1515  405  675]
430.613	0.2	1606805	1607040	BlankScreen	VGS	61	3	False	lime	180	[405 885 405 675]	[1035 1515  405  675]
430.848	1.0	1607040	1608040	ELCue	VGS	61	3	False	lime	180	[405 885 405 675]	[1035 1515  405  675]
432.266	6.0	1608458	1614492	ShowFixation	ANTI	62	3	False	red	180	[1035 1515  405  675]	[405 885 405 675]
438.3	0.2	1614492	1614731	BlankScreen	ANTI	62	3	False	red	180	[1035 1515  405  675]	[405 885 405 675]
438.539	1.0	1614731	1615731	ELCue	ANTI	62	3	False	red	180	[1035 1515  405  675]	[405 885 405 675]
439.963	2.0	1616155	1618183	ShowFixation	ANTI	63	3	False	red	180	[1035 1515  405  675]	[405 885 405 675]
441.991	0.2	1618183	1618418	BlankScreen	ANTI	63	3	False	red	180	[1035 1515  405  675]	[405 885 405 675]
442.226	1.0	1618418	1619418	ELCue	ANTI	63	3	False	red	180	[1035 1515  405  675]	[405 885 405 675]
443.648	6.0	1619840	1625870	ShowFixation	ANTI	64	3	False	red	40	[1350 1830  405  675]	[ 90 570 405 675]
449.678	0.2	1625870	1626110	BlankScreen	ANTI	64	3	False	red	40	[1350 1830  405  675]	[ 90 570 405 675]
449.918	1.0	1626110	1627110	ELCue	ANTI	64	3	False	red	40	[1350 1830  405  675]	[ 90 570 405 675]
451.336	2.0	1627528	1629562	ShowFixation	ANTI	65	3	False	red	600	[ 90 570 405 675]	[1350 1830  405  675]
453.37	0.2	1629562	1629796	BlankScreen	ANTI	65	3	False	red	600	[ 90 570 405 675]	[1350 1830  405  675]
453.604	1.0	1629796	1630796	ELCue	ANTI	65	3	False	red	600	[ 90 570 405 675]	[1350 1830  405  675]
455.029	6.0	1631221	1637248	ShowFixation	VGS	66	3	False	lime	40	[ 90 570 405 675]	[1350 1830  405  675]
461.056	0.2	1637248	1637487	BlankScreen	VGS	66	3	False	lime	40	[ 90 570 405 675]	[1350 1830  405  675]
461.295	1.0	1637487	1638487	ELCue	VGS	66	3	False	lime	40	[ 90 570 405 675]	[1350 1830  405  675]
462.717	6.0	1638909	1644939	ShowFixation	ANTI	67	3	False	red	180	[1035 1515  405  675]	[405 885 405 675]
468.747	0.2	1644939	1645178	BlankScreen	ANTI	67	3	False	red	180	[1035 1515  405  675]	[405 885 405 675]
468.986	1.0	1645178	1646178	ELCue	ANTI	67	3	False	red	180	[1035 1515  405  675]	[405 885 405 675]
470.408	2.0	1646600	1648630	ShowFixation	VGS	68	3	False	lime	600	[1350 1830  405  675]	[ 90 570 405 675]
472.438	0.2	1648630	1648866	BlankScreen	VGS	68	3	False	lime	600	[1350 1830  405  675]	[ 90 570 405 675]
472.674	1.0	1648866	1649866	ELCue	VGS	68	3	False	lime	600	[1350 1830  405  675]	[ 90 570 405 675]
474.096	6.0	1650288	1656317	ShowFixation	VGS	69	3	False	lime	600	[1350 1830  405  675]	[ 90 570 405 675]
480.125	0.2	1656317	1656557	BlankScreen	VGS	69	3	False	lime	600	[1350 1830  405  675]	[ 90 570 405 675]
480.365	1.0	1656557	1657557	ELCue	VGS	69	3	False	lime	600	[1350 1830  405  675]	[ 90 570 405 675]
481.784	2.0	1657976	1660008	ShowFixation	VGS	70	3	False	lime	40	[ 90 570 405 675]	[1350 1830  405  675]
483.816	0.2	1660008	1660244	BlankScreen	VGS	70	3	False	lime	40	[ 90 570 405 675]	[1350 1830  405  675]
484.052	1.0	1660244	1661244	ELCue	VGS	70	3	False	lime	40	[ 90 570 405 675]	[1350 1830  405  675]
485.478	2.0	1661670	1663695	ShowFixation	ANTI	71	3	False	red	600	[ 90 570 405 675]	[1350 1830  405  675]
487.503	0.2	1663695	1663931	BlankScreen	ANTI	71	3	False	red	600	[ 90 570 405 675]	[1350 1830  405  675]
487.739	1.0	1663931	1664931	ELCue	ANTI	71	3	False	red	600	[ 90 570 405 675]	[1350 1830  405  675]
489.18	2.0	1665372	1667399	ShowFixation	ANTI	72	3	False	red	460	[405 885 405 675]	[1035 1515  405  675]
491.207	0.2	1667399	1667634	BlankScreen	ANTI	72	3	False	red	460	[405 885 405 675]	[1035 1515  405  675]
491.442	1.0	1667634	1668634	ELCue	ANTI	72	3	False	red	460	[405 885 405 675]	[1035 1515  405  675]
492.866	2.0	1669058	1671086	ShowFixation	VGS	73	3	False	lime	180	[405 885 405 675]	[1035 1515  405  675]
494.894	0.2	1671086	1671321	BlankScreen	VGS	73	3	False	lime	180	[405 885 405 675]	[1035 1515  405  675]
495.129	1.0	1671321	1672321	ELCue	VGS	73	3	False	lime	180	[405 885 405 675]	[1035 1515  405  675]
496.546	2.0	1672738	1674773	ShowFixation	VGS	74	3	False	lime	600	[1350 1830  405  675]	[ 90 570 405 675]
498.581	0.2	1674773	1675008	BlankScreen	VGS	74	3	False	lime	600	[1350 1830  405  675]	[ 90 570 405 675]
498.816	1.0	1675008	1676008	ELCue	VGS	74	3	False	lime	600	[1350 1830  405  675]	[ 90 570 405 675]
500.238	2.0	1676430	1678460	ShowFixation	ANTI	75	3	False	red	180	[1035 1515  405  675]	[405 885 405 675]
502.268	0.2	1678460	1678695	BlankScreen	ANTI	75	3	False	red	180	[1035 1515  405  675]	[405 885 405 675]
502.503	1.0	1678695	1679695	ELCue	ANTI	75	3	False	red	180	[1035 1515  405  675]	[405 885 405 675]
503.926	6.0	1680118	1686147	ShowFixation	ANTI	76	3	False	red	460	[405 885 405 675]	[1035 1515  405  675]
509.955	0.2	1686147	1686386	BlankScreen	ANTI	76	3	False	red	460	[405 885 405 675]	[1035 1515  405  675]
510.194	1.0	1686386	1687386	ELCue	ANTI	76	3	False	red	460	[405 885 405 675]	[1035 1515  405  675]
511.612	6.0	1687804	1693838	ShowFixation	VGS	77	3	False	lime	180	[405 885 405 675]	[1035 1515  405  675]
517.646	0.2	1693838	1694077	BlankScreen	VGS	77	3	False	lime	180	[405 885 405 675]	[1035 1515  405  675]
517.885	1.0	1694077	1695077	ELCue	VGS	77	3	False	lime	180	[405 885 405 675]	[1035 1515  405  675]
519.312	6.0	1695504	1701545	ShowFixation	ANTI	78	3	False	red	600	[ 90 570 405 675]	[1350 1830  405  675]
525.353	0.2	1701545	1701785	BlankScreen	ANTI	78	3	False	red	600	[ 90 570 405 675]	[1350 1830  405  675]
525.593	1.0	1701785	1702785	ELCue	ANTI	78	3	False	red	600	[ 90 570 405 675]	[1350 1830  405  675]
527.012	6.0	1703204	1709236	ShowFixation	ANTI	79	3	False	red	40	[1350 1830  405  675]	[ 90 570 405 675]
533.044	0.2	1709236	1709476	BlankScreen	ANTI	79	3	False	red	40	[1350 1830  405  675]	[ 90 570 405 675]
533.284	1.0	1709476	1710476	ELCue	ANTI	79	3	False	red	40	[1350 1830  405  675]	[ 90 570 405 675]
534.707	6.0	1710899	1716927	ShowFixation	VGS	80	3	False	lime	460	[1035 1515  405  675]	[405 885 405 675]
540.735	0.2	1716927	1717166	BlankScreen	VGS	80	3	False	lime	460	[1035 1515  405  675]	[405 885 405 675]
540.974	1.0	1717166	1718166	ELCue	VGS	80	3	False	lime	460	[1035 1515  405  675]	[405 885 405 675]
566.717	2.0	1742909	1744942	ShowFixation	ANTI	81	4	False	red	40	[1350 1830  405  675]	[ 90 570 405 675]
568.75	0.2	1744942	1745177	BlankScreen	ANTI	81	4	False	red	40	[1350 1830  405  675]	[ 90 570 405 675]
568.985	1.0	1745177	1746177	ELCue	ANTI	81	4	False	red	40	[1350 1830  405  675]	[ 90 570 405 675]
570.413	2.0	1746605	1748629	ShowFixation	VGS	82	4	False	lime	460	[1035 1515  405  675]	[405 885 405 675]
572.437	0.2	1748629	1748864	BlankScreen	VGS	82	4	False	lime	460	[1035 1515  405  675]	[405 885 405 675]
572.672	1.0	1748864	1749864	ELCue	VGS	82	4	False	lime	460	[1035 1515  405  675]	[405 885 405 675]
574.095	6.0	1750287	1756317	ShowFixation	ANTI	83	4	False	red	600	[ 90 570 405 675]	[1350 1830  405  675]
580.125	0.2	1756317	1756556	BlankScreen	ANTI	83	4	False	red	600	[ 90 570 405 675]	[1350 1830  405  675]
580.364	1.0	1756556	1757556	ELCue	ANTI	83	4	False	red	600	[ 90 570 405 675]	[1350 1830  405  675]
581.778	6.0	1757970	1764008	ShowFixation	VGS	84	4	False	lime	600	[1350 1830  405  675]	[ 90 570 405 675]
587.816	0.2	1764008	1764247	BlankScreen	VGS	84	4	False	lime	600	[1350 1830  405  675]	[ 90 570 405 675]
588.055	1.0	1764247	1765247	ELCue	VGS	84	4	False	lime	600	[1350 1830  405  675]	[ 90 570 405 675]
589.474	2.0	1765666	1767699	ShowFixation	VGS	85	4	False	lime	460	[1035 1515  405  675]	[405 885 405 675]
591.507	0.2	1767699	1767934	BlankScreen	VGS	85	4	False	lime	460	[1035 1515  405  675]	[405 885 405 675]
591.742	1.0	1767934	1768934	ELCue	VGS	85	4	False	lime	460	[1035 1515  405  675]	[405 885 405 675]
593.16	2.0	1769352	1771386	ShowFixation	ANTI	86	4	False	red	180	[1035 1515  405  675]	[405 885 405 675]
595.194	0.2	1771386	1771621	BlankScreen	ANTI	86	4	False	red	180	[1035 1515  405  675]	[405 885 405 675]
595.429	1.0	1771621	1772621	ELCue	ANTI	86	4	False	red	180	[1035 1515  405  675]	[405 885 405 675]
596.855	6.0	1773047	1779073	ShowFixation	ANTI	87	4	False	red	180	[1035 1515  405  675]	[405 885 405 675]
602.881	0.2	1779073	1779312	BlankScreen	ANTI	87	4	False	red	180	[1035 1515  405  675]	[405 885 405 675]
603.12	1.0	1779312	1780312	ELCue	ANTI	87	4	False	red	180	[1035 1515  405  675]	[405 885 405 675]
604.54	2.0	1780732	1782764	ShowFixation	ANTI	88	4	False	red	180	[1035 1515  405  675]	[405 885 405 675]
606.572	0.2	1782764	1782999	BlankScreen	ANTI	88	4	False	red	180	[1035 1515  405  675]	[405 885 405 675]
606.807	1.0	1782999	1783999	ELCue	ANTI	88	4	False	red	180	[1035 1515  405  675]	[405 885 405 675]
608.213	2.0	1784405	1786434	ShowFixation	VGS	89	4	False	lime	40	[ 90 570 405 675]	[1350 1830  405  675]
610.242	0.2	1786434	1786669	BlankScreen	VGS	89	4	False	lime	40	[ 90 570 405 675]	[1350 1830  405  675]
610.477	1.0	1786669	1787669	ELCue	VGS	89	4	False	lime	40	[ 90 570 405 675]	[1350 1830  405  675]
611.898	6.0	1788090	1794121	ShowFixation	VGS	90	4	False	lime	460	[1035 1515  405  675]	[405 885 405 675]
617.929	0.2	1794121	1794360	BlankScreen	VGS	90	4	False	lime	460	[1035 1515  405  675]	[405 885 405 675]
618.168	1.0	1794360	1795360	ELCue	VGS	90	4	False	lime	460	[1035 1515  405  675]	[405 885 405 675]
619.59	2.0	1795782	1797812	ShowFixation	VGS	91	4	False	lime	600	[1350 1830  405  675]	[ 90 570 405 675]
621.62	0.2	1797812	1798047	BlankScreen	VGS	91	4	False	lime	600	[1350 1830  405  675]	[ 90 570 405 675]
621.855	1.0	1798047	1799047	ELCue	VGS	91	4	False	lime	600	[1350 1830  405  675]	[ 90 570 405 675]
623.279	2.0	1799471	1801499	ShowFixation	ANTI	92	4	False	red	460	[405 885 405 675]	[1035 1515  405  675]
625.307	0.2	1801499	1801734	BlankScreen	ANTI	92	4	False	red	460	[405 885 405 675]	[1035 1515  405  675]
625.542	1.0	1801734	1802734	ELCue	ANTI	92	4	False	red	460	[405 885 405 675]	[1035 1515  405  675]
626.964	2.0	1803156	1805186	ShowFixation	ANTI	93	4	False	red	40	[1350 1830  405  675]	[ 90 570 405 675]
628.994	0.2	1805186	1805421	BlankScreen	ANTI	93	4	False	red	40	[1350 1830  405  675]	[ 90 570 405 675]
629.229	1.0	1805421	1806421	ELCue	ANTI	93	4	False	red	40	[1350 1830  405  675]	[ 90 570 405 675]
630.651	6.0	1806843	1812873	ShowFixation	VGS	94	4	False	lime	600	[1350 1830  405  675]	[ 90 570 405 675]
636.681	0.2	1812873	1813112	BlankScreen	VGS	94	4	False	lime	600	[1350 1830  405  675]	[ 90 570 405 675]
636.92	1.0	1813112	1814112	ELCue	VGS	94	4	False	lime	600	[1350 1830  405  675]	[ 90 570 405 675]
638.329	6.0	1814521	1820547	ShowFixation	VGS	95	4	False	lime	460	[1035 1515  405  675]	[405 885 405 675]
644.355	0.2	1820547	1820786	BlankScreen	VGS	95	4	False	lime	460	[1035 1515  405  675]	[405 885 405 675]
644.594	1.0	1820786	1821786	ELCue	VGS	95	4	False	lime	460	[1035 1515  405  675]	[405 885 405 675]
646.017	6.0	1822209	1828238	ShowFixation	ANTI	96	4	False	red	460	[405 885 405 675]	[1035 1515  405  675]
652.046	0.2	1828238	1828477	BlankScreen	ANTI	96	4	False	red	460	[405 885 405 675]	[1035 1515  405  675]
652.285	1.0	1828477	1829477	ELCue	ANTI	96	4	False	red	460	[405 885 405 675]	[1035 1515  405  675]
653.705	6.0	1829897	1835929	ShowFixation	ANTI	97	4	False	red	180	[1035 1515  405  675]	[405 885 405 675]
659.737	0.2	1835929	1836168	BlankScreen	ANTI	97	4	False	red	180	[1035 1515  405  675]	[405 885 405 675]
659.976	1.0	1836168	1837168	ELCue	ANTI	97	4	False	red	180	[1035 1515  405  675]	[405 885 405 675]
661.399	2.0	1837591	1839620	ShowFixation	ANTI	98	4	False	red	600	[ 90 570 405 675]	[1350 1830  405  675]
663.428	0.2	1839620	1839855	BlankScreen	ANTI	98	4	False	red	600	[ 90 570 405 675]	[1350 1830  405  675]
663.663	1.0	1839855	1840855	ELCue	ANTI	98	4	False	red	600	[ 90 570 405 675]	[1350 1830  405  675]
665.086	6.0	1841278	1847307	ShowFixation	ANTI	99	4	False	red	600	[ 90 570 405 675]	[1350 1830  405  675]
671.115	0.2	1847307	1847546	BlankScreen	ANTI	99	4	False	red	600	[ 90 570 405 675]	[1350 1830  405  675]
671.354	1.0	1847546	1848546	ELCue	ANTI	99	4	False	red	600	[ 90 570 405 675]	[1350 1830  405  675]
672.775	2.0	1848967	1850997	ShowFixation	VGS	100	4	False	lime	40	[ 90 570 405 675]	[1350 1830  405  675]
674.805	0.2	1850997	1851233	BlankScreen	VGS	100	4	False	lime	40	[ 90 570 405 675]	[1350 1830  405  675]
675.041	1.0	1851233	1852233	ELCue	VGS	100	4	False	lime	40	[ 90 570 405 675]	[1350 1830  405  675]
676.462	2.0	1852654	1854684	ShowFixation	ANTI	101	4	False	red	600	[ 90 570 405 675]	[1350 1830  405  675]
678.492	0.2	1854684	1854920	BlankScreen	ANTI	101	4	False	red	600	[ 90 570 405 675]	[1350 1830  405  675]
678.728	1.0	1854920	1855920	ELCue	ANTI	101	4	False	red	600	[ 90 570 405 675]	[1350 1830  405  675]
680.144	6.0	1856336	1862371	ShowFixation	ANTI	102	4	False	red	460	[405 885 405 675]	[1035 1515  405  675]
686.18	0.2	1862372	1862611	BlankScreen	ANTI	102	4	False	red	460	[405 885 405 675]	[1035 1515  405  675]
686.42	1.0	1862612	1863612	ELCue	ANTI	102	4	False	red	460	[405 885 405 675]	[1035 1515  405  675]
687.842	6.0	1864034	1870062	ShowFixation	VGS	103	4	False	lime	40	[ 90 570 405 675]	[1350 1830  405  675]
693.871	0.2	1870063	1870303	BlankScreen	VGS	103	4	False	lime	40	[ 90 570 405 675]	[1350 1830  405  675]
694.111	1.0	1870303	1871303	ELCue	VGS	103	4	False	lime	40	[ 90 570 405 675]	[1350 1830  405  675]
695.532	6.0	1871724	1877754	ShowFixation	VGS	104	4	False	lime	180	[405 885 405 675]	[1035 1515  405  675]
701.562	0.2	1877754	1877993	BlankScreen	VGS	104	4	False	lime	180	[405 885 405 675]	[1035 1515  405  675]
701.801	1.0	1877993	1878993	ELCue	VGS	104	4	False	lime	180	[405 885 405 675]	[1035 1515  405  675]
703.229	2.0	1879421	1881462	ShowFixation	ANTI	105	4	False	red	460	[405 885 405 675]	[1035 1515  405  675]
705.27	0.2	1881462	1881697	BlankScreen	ANTI	105	4	False	red	460	[405 885 405 675]	[1035 1515  405  675]
705.505	1.0	1881697	1882697	ELCue	ANTI	105	4	False	red	460	[405 885 405 675]	[1035 1515  405  675]
706.924	2.0	1883116	1885149	ShowFixation	VGS	106	4	False	lime	180	[405 885 405 675]	[1035 1515  405  675]
708.957	0.2	1885149	1885384	BlankScreen	VGS	106	4	False	lime	180	[405 885 405 675]	[1035 1515  405  675]
709.192	1.0	1885384	1886384	ELCue	VGS	106	4	False	lime	180	[405 885 405 675]	[1035 1515  405  675]
710.61	6.0	1886802	1892836	ShowFixation	ANTI	107	4	False	red	40	[1350 1830  405  675]	[ 90 570 405 675]
716.644	0.2	1892836	1893075	BlankScreen	ANTI	107	4	False	red	40	[1350 1830  405  675]	[ 90 570 405 675]
716.883	1.0	1893075	1894075	ELCue	ANTI	107	4	False	red	40	[1350 1830  405  675]	[ 90 570 405 675]
718.306	6.0	1894498	1900527	ShowFixation	VGS	108	4	False	lime	180	[405 885 405 675]	[1035 1515  405  675]
724.335	0.2	1900527	1900766	BlankScreen	VGS	108	4	False	lime	180	[405 885 405 675]	[1035 1515  405  675]
724.574	1.0	1900766	1901766	ELCue	VGS	108	4	False	lime	180	[405 885 405 675]	[1035 1515  405  675]
725.997	6.0	1902189	1908217	ShowFixation	VGS	109	4	False	lime	40	[ 90 570 405 675]	[1350 1830  405  675]
732.025	0.2	1908217	1908457	BlankScreen	VGS	109	4	False	lime	40	[ 90 570 405 675]	[1350 1830  405  675]
732.265	1.0	1908457	1909457	ELCue	VGS	109	4	False	lime	40	[ 90 570 405 675]	[1350 1830  405  675]
733.688	6.0	1909880	1915908	ShowFixation	ANTI	110	4	False	red	40	[1350 1830  405  675]	[ 90 570 405 675]
739.716	0.2	1915908	1916148	BlankScreen	ANTI	110	4	False	red	40	[1350 1830  405  675]	[ 90 570 405 675]
739.956	1.0	1916148	1917148	ELCue	ANTI	110	4	False	red	40	[1350 1830  405  675]	[ 90 570 405 675]
741.377	2.0	1917569	1919599	ShowFixation	VGS	111	4	False	lime	180	[405 885 405 675]	[1035 1515  405  675]
743.407	0.2	1919599	1919835	BlankScreen	VGS	111	4	False	lime	180	[405 885 405 675]	[1035 1515  405  675]
743.643	1.0	1919835	1920835	ELCue	VGS	111	4	False	lime	180	[405 885 405 675]	[1035 1515  405  675]
745.065	2.0	1921257	1923286	ShowFixation	VGS	112	4	False	lime	600	[1350 1830  405  675]	[ 90 570 405 675]
747.094	0.2	1923286	1923522	BlankScreen	VGS	112	4	False	lime	600	[1350 1830  405  675]	[ 90 570 405 675]
747.33	1.0	1923522	1924522	ELCue	VGS	112	4	False	lime	600	[1350 1830  405  675]	[ 90 570 405 675]
