onset	duration	startTime	stopTime	eventIdentifier	trial_type	trial_number	block_number	is_practice	fixation_color	cue_side	aoi_correct	aoi_incorrect
0.144	2.0	983662	985692	ShowFixation	VGS	1	1	True	lime	600	[1350 1830  405  675]	[ 90 570 405 675]
2.174	0.2	985692	985928	BlankScreen	VGS	1	1	True	lime	600	[1350 1830  405  675]	[ 90 570 405 675]
2.41	1.0	985928	986968	ELCue	VGS	1	1	True	lime	600	[1350 1830  405  675]	[ 90 570 405 675]
3.834	2.0	987352	989997	ShowFixation	VGS	2	1	True	lime	460	[1035 1515  405  675]	[405 885 405 675]
6.479	0.2	989997	990215	BlankScreen	VGS	2	1	True	lime	460	[1035 1515  405  675]	[405 885 405 675]
6.697	1.0	990215	991239	ELCue	VGS	2	1	True	lime	460	[1035 1515  405  675]	[405 885 405 675]
8.124	2.0	991642	994284	ShowFixation	VGS	3	1	True	lime	180	[405 885 405 675]	[1035 1515  405  675]
10.766	0.2	994284	994519	BlankScreen	VGS	3	1	True	lime	180	[405 885 405 675]	[1035 1515  405  675]
11.001	1.0	994519	995560	ELCue	VGS	3	1	True	lime	180	[405 885 405 675]	[1035 1515  405  675]
12.441	6.0	995959	1002605	ShowFixation	VGS	4	1	True	lime	600	[1350 1830  405  675]	[ 90 570 405 675]
19.087	0.2	1002605	1002844	BlankScreen	VGS	4	1	True	lime	600	[1350 1830  405  675]	[ 90 570 405 675]
19.326	1.0	1002844	1003884	ELCue	VGS	4	1	True	lime	600	[1350 1830  405  675]	[ 90 570 405 675]
20.772	2.0	1004290	1006913	ShowFixation	ANTI	5	1	True	red	180	[1035 1515  405  675]	[405 885 405 675]
23.395	0.2	1006913	1007132	BlankScreen	ANTI	5	1	True	red	180	[1035 1515  405  675]	[405 885 405 675]
23.614	1.0	1007132	1008153	ELCue	ANTI	5	1	True	red	180	[1035 1515  405  675]	[405 885 405 675]
25.025	6.0	1008543	1015184	ShowFixation	ANTI	6	1	True	red	460	[405 885 405 675]	[1035 1515  405  675]
31.666	0.2	1015184	1015423	BlankScreen	ANTI	6	1	True	red	460	[405 885 405 675]	[1035 1515  405  675]
31.905	1.0	1015423	1016461	ELCue	ANTI	6	1	True	red	460	[405 885 405 675]	[1035 1515  405  675]
33.352	6.0	1016870	1023509	ShowFixation	ANTI	7	1	True	red	40	[1350 1830  405  675]	[ 90 570 405 675]
39.991	0.2	1023509	1023748	BlankScreen	ANTI	7	1	True	red	40	[1350 1830  405  675]	[ 90 570 405 675]
40.23	1.0	1023748	1024786	ELCue	ANTI	7	1	True	red	40	[1350 1830  405  675]	[ 90 570 405 675]
41.678	2.0	1025196	1027834	ShowFixation	ANTI	8	1	True	red	600	[ 90 570 405 675]	[1350 1830  405  675]
44.316	0.2	1027834	1028069	BlankScreen	ANTI	8	1	True	red	600	[ 90 570 405 675]	[1350 1830  405  675]
44.551	1.0	1028069	1029107	ELCue	ANTI	8	1	True	red	600	[ 90 570 405 675]	[1350 1830  405  675]
45.994	6.0	1029512	1036155	ShowFixation	ANTI	9	1	True	red	180	[1035 1515  405  675]	[405 885 405 675]
52.637	0.2	1036155	1036394	BlankScreen	ANTI	9	1	True	red	180	[1035 1515  405  675]	[405 885 405 675]
52.876	1.0	1036394	1037432	ELCue	ANTI	9	1	True	red	180	[1035 1515  405  675]	[405 885 405 675]
54.303	6.0	1037821	1044446	ShowFixation	VGS	10	1	True	lime	180	[405 885 405 675]	[1035 1515  405  675]
60.928	0.2	1044446	1044686	BlankScreen	VGS	10	1	True	lime	180	[405 885 405 675]	[1035 1515  405  675]
61.168	1.0	1044686	1045726	ELCue	VGS	10	1	True	lime	180	[405 885 405 675]	[1035 1515  405  675]
62.616	2.0	1046134	1048771	ShowFixation	ANTI	11	1	True	red	40	[1350 1830  405  675]	[ 90 570 405 675]
65.254	0.2	1048772	1049006	BlankScreen	ANTI	11	1	True	red	40	[1350 1830  405  675]	[ 90 570 405 675]
65.489	1.0	1049007	1050044	ELCue	ANTI	11	1	True	red	40	[1350 1830  405  675]	[ 90 570 405 675]
66.916	6.0	1050434	1057092	ShowFixation	ANTI	12	1	True	red	600	[ 90 570 405 675]	[1350 1830  405  675]
73.575	0.2	1057093	1057332	BlankScreen	ANTI	12	1	True	red	600	[ 90 570 405 675]	[1350 1830  405  675]
73.814	1.0	1057332	1058372	ELCue	ANTI	12	1	True	red	600	[ 90 570 405 675]	[1350 1830  405  675]
75.257	2.0	1058775	1061401	ShowFixation	ANTI	13	1	True	red	460	[405 885 405 675]	[1035 1515  405  675]
77.883	0.2	1061401	1061619	BlankScreen	ANTI	13	1	True	red	460	[405 885 405 675]	[1035 1515  405  675]
78.102	1.0	1061620	1062643	ELCue	ANTI	13	1	True	red	460	[405 885 405 675]	[1035 1515  405  675]
79.528	6.0	1063046	1069689	ShowFixation	VGS	14	1	True	lime	40	[ 90 570 405 675]	[1350 1830  405  675]
86.171	0.2	1069689	1069928	BlankScreen	VGS	14	1	True	lime	40	[ 90 570 405 675]	[1350 1830  405  675]
86.41	1.0	1069928	1070968	ELCue	VGS	14	1	True	lime	40	[ 90 570 405 675]	[1350 1830  405  675]
87.833	6.0	1071351	1078014	ShowFixation	VGS	15	1	True	lime	460	[1035 1515  405  675]	[405 885 405 675]
94.496	0.2	1078014	1078253	BlankScreen	VGS	15	1	True	lime	460	[1035 1515  405  675]	[405 885 405 675]
94.735	1.0	1078253	1079293	ELCue	VGS	15	1	True	lime	460	[1035 1515  405  675]	[405 885 405 675]
96.175	2.0	1079693	1082339	ShowFixation	VGS	16	1	True	lime	40	[ 90 570 405 675]	[1350 1830  405  675]
98.821	0.2	1082339	1082574	BlankScreen	VGS	16	1	True	lime	40	[ 90 570 405 675]	[1350 1830  405  675]
99.056	1.0	1082574	1083614	ELCue	VGS	16	1	True	lime	40	[ 90 570 405 675]	[1350 1830  405  675]
110.696	2.0	1094214	1096252	ShowFixation	ANTI	17	2	False	red	40	[1350 1830  405  675]	[ 90 570 405 675]
112.734	0.2	1096252	1096488	BlankScreen	ANTI	17	2	False	red	40	[1350 1830  405  675]	[ 90 570 405 675]
112.97	1.0	1096488	1097488	ELCue	ANTI	17	2	False	red	40	[1350 1830  405  675]	[ 90 570 405 675]
114.379	2.0	1097897	1099923	ShowFixation	VGS	18	2	False	lime	460	[1035 1515  405  675]	[405 885 405 675]
116.405	0.2	1099923	1100158	BlankScreen	VGS	18	2	False	lime	460	[1035 1515  405  675]	[405 885 405 675]
116.64	1.0	1100158	1101158	ELCue	VGS	18	2	False	lime	460	[1035 1515  405  675]	[405 885 405 675]
118.046	2.0	1101564	1103593	ShowFixation	ANTI	19	2	False	red	180	[1035 1515  405  675]	[405 885 405 675]
120.075	0.2	1103593	1103828	BlankScreen	ANTI	19	2	False	red	180	[1035 1515  405  675]	[405 885 405 675]
120.31	1.0	1103828	1104828	ELCue	ANTI	19	2	False	red	180	[1035 1515  405  675]	[405 885 405 675]
121.715	2.0	1105233	1107263	ShowFixation	VGS	20	2	False	lime	40	[ 90 570 405 675]	[1350 1830  405  675]
123.745	0.2	1107263	1107498	BlankScreen	VGS	20	2	False	lime	40	[ 90 570 405 675]	[1350 1830  405  675]
123.98	1.0	1107498	1108498	ELCue	VGS	20	2	False	lime	40	[ 90 570 405 675]	[1350 1830  405  675]
125.389	2.0	1108907	1110933	ShowFixation	ANTI	21	2	False	red	460	[405 885 405 675]	[1035 1515  405  675]
127.415	0.2	1110933	1111169	BlankScreen	ANTI	21	2	False	red	460	[405 885 405 675]	[1035 1515  405  675]
127.651	1.0	1111169	1112169	ELCue	ANTI	21	2	False	red	460	[405 885 405 675]	[1035 1515  405  675]
129.057	2.0	1112575	1114604	ShowFixation	ANTI	22	2	False	red	460	[405 885 405 675]	[1035 1515  405  675]
131.086	0.2	1114604	1114839	BlankScreen	ANTI	22	2	False	red	460	[405 885 405 675]	[1035 1515  405  675]
131.321	1.0	1114839	1115839	ELCue	ANTI	22	2	False	red	460	[405 885 405 675]	[1035 1515  405  675]
132.708	2.0	1116226	1118257	ShowFixation	ANTI	23	2	False	red	180	[1035 1515  405  675]	[405 885 405 675]
134.739	0.2	1118257	1118493	BlankScreen	ANTI	23	2	False	red	180	[1035 1515  405  675]	[405 885 405 675]
134.975	1.0	1118493	1119493	ELCue	ANTI	23	2	False	red	180	[1035 1515  405  675]	[405 885 405 675]
136.383	2.0	1119901	1121928	ShowFixation	VGS	24	2	False	lime	40	[ 90 570 405 675]	[1350 1830  405  675]
138.41	0.2	1121928	1122163	BlankScreen	VGS	24	2	False	lime	40	[ 90 570 405 675]	[1350 1830  405  675]
138.645	1.0	1122163	1123163	ELCue	VGS	24	2	False	lime	40	[ 90 570 405 675]	[1350 1830  405  675]
140.052	2.0	1123570	1125598	ShowFixation	ANTI	25	2	False	red	600	[ 90 570 405 675]	[1350 1830  405  675]
142.08	0.2	1125598	1125833	BlankScreen	ANTI	25	2	False	red	600	[ 90 570 405 675]	[1350 1830  405  675]
142.315	1.0	1125833	1126833	ELCue	ANTI	25	2	False	red	600	[ 90 570 405 675]	[1350 1830  405  675]
143.725	6.0	1127243	1133268	ShowFixation	ANTI	26	2	False	red	40	[1350 1830  405  675]	[ 90 570 405 675]
149.75	0.2	1133268	1133507	BlankScreen	ANTI	26	2	False	red	40	[1350 1830  405  675]	[ 90 570 405 675]
149.989	1.0	1133507	1134507	ELCue	ANTI	26	2	False	red	40	[1350 1830  405  675]	[ 90 570 405 675]
151.398	6.0	1134916	1140942	ShowFixation	VGS	27	2	False	lime	600	[1350 1830  405  675]	[ 90 570 405 675]
157.424	0.2	1140942	1141182	BlankScreen	VGS	27	2	False	lime	600	[1350 1830  405  675]	[ 90 570 405 675]
157.664	1.0	1141182	1142182	ELCue	VGS	27	2	False	lime	600	[1350 1830  405  675]	[ 90 570 405 675]
159.073	6.0	1142591	1148617	ShowFixation	ANTI	28	2	False	red	460	[405 885 405 675]	[1035 1515  405  675]
165.099	0.2	1148617	1148856	BlankScreen	ANTI	28	2	False	red	460	[405 885 405 675]	[1035 1515  405  675]
165.338	1.0	1148856	1149856	ELCue	ANTI	28	2	False	red	460	[405 885 405 675]	[1035 1515  405  675]
166.749	2.0	1150267	1152308	ShowFixation	VGS	29	2	False	lime	460	[1035 1515  405  675]	[405 885 405 675]
168.79	0.2	1152308	1152543	BlankScreen	VGS	29	2	False	lime	460	[1035 1515  405  675]	[405 885 405 675]
169.025	1.0	1152543	1153543	ELCue	VGS	29	2	False	lime	460	[1035 1515  405  675]	[405 885 405 675]
170.429	2.0	1153947	1155978	ShowFixation	ANTI	30	2	False	red	40	[1350 1830  405  675]	[ 90 570 405 675]
172.46	0.2	1155978	1156213	BlankScreen	ANTI	30	2	False	red	40	[1350 1830  405  675]	[ 90 570 405 675]
172.695	1.0	1156213	1157213	ELCue	ANTI	30	2	False	red	40	[1350 1830  405  675]	[ 90 570 405 675]
174.103	6.0	1157621	1163648	ShowFixation	VGS	31	2	False	lime	180	[405 885 405 675]	[1035 1515  405  675]
180.13	0.2	1163648	1163887	BlankScreen	VGS	31	2	False	lime	180	[405 885 405 675]	[1035 1515  405  675]
180.369	1.0	1163887	1164887	ELCue	VGS	31	2	False	lime	180	[405 885 405 675]	[1035 1515  405  675]
181.749	6.0	1165267	1171307	ShowFixation	ANTI	32	2	False	red	600	[ 90 570 405 675]	[1350 1830  405  675]
187.789	0.2	1171307	1171545	BlankScreen	ANTI	32	2	False	red	600	[ 90 570 405 675]	[1350 1830  405  675]
188.027	1.0	1171545	1172545	ELCue	ANTI	32	2	False	red	600	[ 90 570 405 675]	[1350 1830  405  675]
189.435	2.0	1172953	1174980	ShowFixation	VGS	33	2	False	lime	180	[405 885 405 675]	[1035 1515  405  675]
191.462	0.2	1174980	1175215	BlankScreen	VGS	33	2	False	lime	180	[405 885 405 675]	[1035 1515  405  675]
191.697	1.0	1175215	1176215	ELCue	VGS	33	2	False	lime	180	[405 885 405 675]	[1035 1515  405  675]
193.105	2.0	1176623	1178650	ShowFixation	VGS	34	2	False	lime	600	[1350 1830  405  675]	[ 90 570 405 675]
195.132	0.2	1178650	1178885	BlankScreen	VGS	34	2	False	lime	600	[1350 1830  405  675]	[ 90 570 405 675]
195.367	1.0	1178885	1179885	ELCue	VGS	34	2	False	lime	600	[1350 1830  405  675]	[ 90 570 405 675]
196.779	6.0	1180297	1186337	ShowFixation	ANTI	35	2	False	red	40	[1350 1830  405  675]	[ 90 570 405 675]
202.82	0.2	1186338	1186576	BlankScreen	ANTI	35	2	False	red	40	[1350 1830  405  675]	[ 90 570 405 675]
203.058	1.0	1186576	1187576	ELCue	ANTI	35	2	False	red	40	[1350 1830  405  675]	[ 90 570 405 675]
204.465	6.0	1187983	1194011	ShowFixation	ANTI	36	2	False	red	180	[1035 1515  405  675]	[405 885 405 675]
210.493	0.2	1194011	1194251	BlankScreen	ANTI	36	2	False	red	180	[1035 1515  405  675]	[405 885 405 675]
210.733	1.0	1194251	1195251	ELCue	ANTI	36	2	False	red	180	[1035 1515  405  675]	[405 885 405 675]
212.14	6.0	1195658	1201687	ShowFixation	VGS	37	2	False	lime	600	[1350 1830  405  675]	[ 90 570 405 675]
218.169	0.2	1201687	1201926	BlankScreen	VGS	37	2	False	lime	600	[1350 1830  405  675]	[ 90 570 405 675]
218.408	1.0	1201926	1202926	ELCue	VGS	37	2	False	lime	600	[1350 1830  405  675]	[ 90 570 405 675]
219.817	2.0	1203335	1205361	ShowFixation	ANTI	38	2	False	red	600	[ 90 570 405 675]	[1350 1830  405  675]
221.843	0.2	1205361	1205596	BlankScreen	ANTI	38	2	False	red	600	[ 90 570 405 675]	[1350 1830  405  675]
222.078	1.0	1205596	1206596	ELCue	ANTI	38	2	False	red	600	[ 90 570 405 675]	[1350 1830  405  675]
223.487	6.0	1207005	1213031	ShowFixation	VGS	39	2	False	lime	460	[1035 1515  405  675]	[405 885 405 675]
229.513	0.2	1213031	1213270	BlankScreen	VGS	39	2	False	lime	460	[1035 1515  405  675]	[405 885 405 675]
229.752	1.0	1213270	1214270	ELCue	VGS	39	2	False	lime	460	[1035 1515  405  675]	[405 885 405 675]
231.152	2.0	1214670	1216705	ShowFixation	VGS	40	2	False	lime	600	[1350 1830  405  675]	[ 90 570 405 675]
233.187	0.2	1216705	1216941	BlankScreen	VGS	40	2	False	lime	600	[1350 1830  405  675]	[ 90 570 405 675]
233.423	1.0	1216941	1217941	ELCue	VGS	40	2	False	lime	600	[1350 1830  405  675]	[ 90 570 405 675]
234.825	6.0	1218343	1224376	ShowFixation	ANTI	41	2	False	red	180	[1035 1515  405  675]	[405 885 405 675]
240.858	0.2	1224376	1224615	BlankScreen	ANTI	41	2	False	red	180	[1035 1515  405  675]	[405 885 405 675]
241.097	1.0	1224615	1225615	ELCue	ANTI	41	2	False	red	180	[1035 1515  405  675]	[405 885 405 675]
242.505	6.0	1226023	1232050	ShowFixation	VGS	42	2	False	lime	460	[1035 1515  405  675]	[405 885 405 675]
248.532	0.2	1232050	1232289	BlankScreen	VGS	42	2	False	lime	460	[1035 1515  405  675]	[405 885 405 675]
248.771	1.0	1232289	1233289	ELCue	VGS	42	2	False	lime	460	[1035 1515  405  675]	[405 885 405 675]
250.181	6.0	1233699	1239741	ShowFixation	ANTI	43	2	False	red	460	[405 885 405 675]	[1035 1515  405  675]
256.223	0.2	1239741	1239980	BlankScreen	ANTI	43	2	False	red	460	[405 885 405 675]	[1035 1515  405  675]
256.462	1.0	1239980	1240980	ELCue	ANTI	43	2	False	red	460	[405 885 405 675]	[1035 1515  405  675]
257.831	6.0	1241349	1247382	ShowFixation	VGS	44	2	False	lime	40	[ 90 570 405 675]	[1350 1830  405  675]
263.864	0.2	1247382	1247621	BlankScreen	VGS	44	2	False	lime	40	[ 90 570 405 675]	[1350 1830  405  675]
264.103	1.0	1247621	1248621	ELCue	VGS	44	2	False	lime	40	[ 90 570 405 675]	[1350 1830  405  675]
265.512	2.0	1249030	1251056	ShowFixation	VGS	45	2	False	lime	180	[405 885 405 675]	[1035 1515  405  675]
267.538	0.2	1251056	1251291	BlankScreen	VGS	45	2	False	lime	180	[405 885 405 675]	[1035 1515  405  675]
267.773	1.0	1251291	1252291	ELCue	VGS	45	2	False	lime	180	[405 885 405 675]	[1035 1515  405  675]
269.178	6.0	1252696	1258726	ShowFixation	ANTI	46	2	False	red	600	[ 90 570 405 675]	[1350 1830  405  675]
275.208	0.2	1258726	1258965	BlankScreen	ANTI	46	2	False	red	600	[ 90 570 405 675]	[1350 1830  405  675]
275.447	1.0	1258965	1259965	ELCue	ANTI	46	2	False	red	600	[ 90 570 405 675]	[1350 1830  405  675]
276.835	6.0	1260353	1266384	ShowFixation	VGS	47	2	False	lime	180	[405 885 405 675]	[1035 1515  405  675]
282.866	0.2	1266384	1266623	BlankScreen	VGS	47	2	False	lime	180	[405 885 405 675]	[1035 1515  405  675]
283.105	1.0	1266623	1267623	ELCue	VGS	47	2	False	lime	180	[405 885 405 675]	[1035 1515  405  675]
284.511	6.0	1268029	1274058	ShowFixation	VGS	48	2	False	lime	40	[ 90 570 405 675]	[1350 1830  405  675]
290.54	0.2	1274058	1274297	BlankScreen	VGS	48	2	False	lime	40	[ 90 570 405 675]	[1350 1830  405  675]
290.779	1.0	1274297	1275297	ELCue	VGS	48	2	False	lime	40	[ 90 570 405 675]	[1350 1830  405  675]
328.681	2.0	1312199	1314235	ShowFixation	VGS	49	3	False	lime	460	[1035 1515  405  675]	[405 885 405 675]
330.717	0.2	1314235	1314470	BlankScreen	VGS	49	3	False	lime	460	[1035 1515  405  675]	[405 885 405 675]
330.952	1.0	1314470	1315470	ELCue	VGS	49	3	False	lime	460	[1035 1515  405  675]	[405 885 405 675]
332.363	6.0	1315881	1321922	ShowFixation	VGS	50	3	False	lime	40	[ 90 570 405 675]	[1350 1830  405  675]
338.404	0.2	1321922	1322161	BlankScreen	VGS	50	3	False	lime	40	[ 90 570 405 675]	[1350 1830  405  675]
338.643	1.0	1322161	1323161	ELCue	VGS	50	3	False	lime	40	[ 90 570 405 675]	[1350 1830  405  675]
340.052	6.0	1323570	1329596	ShowFixation	VGS	51	3	False	lime	180	[405 885 405 675]	[1035 1515  405  675]
346.079	0.2	1329597	1329835	BlankScreen	VGS	51	3	False	lime	180	[405 885 405 675]	[1035 1515  405  675]
346.317	1.0	1329835	1330835	ELCue	VGS	51	3	False	lime	180	[405 885 405 675]	[1035 1515  405  675]
347.729	6.0	1331247	1337288	ShowFixation	VGS	52	3	False	lime	600	[1350 1830  405  675]	[ 90 570 405 675]
353.77	0.2	1337288	1337527	BlankScreen	VGS	52	3	False	lime	600	[1350 1830  405  675]	[ 90 570 405 675]
354.009	1.0	1337527	1338527	ELCue	VGS	52	3	False	lime	600	[1350 1830  405  675]	[ 90 570 405 675]
355.418	6.0	1338936	1344962	ShowFixation	VGS	53	3	False	lime	40	[ 90 570 405 675]	[1350 1830  405  675]
361.444	0.2	1344962	1345201	BlankScreen	VGS	53	3	False	lime	40	[ 90 570 405 675]	[1350 1830  405  675]
361.683	1.0	1345201	1346201	ELCue	VGS	53	3	False	lime	40	[ 90 570 405 675]	[1350 1830  405  675]
363.088	2.0	1346606	1348636	ShowFixation	VGS	54	3	False	lime	600	[1350 1830  405  675]	[ 90 570 405 675]
365.118	0.2	1348636	1348872	BlankScreen	VGS	54	3	False	lime	600	[1350 1830  405  675]	[ 90 570 405 675]
365.354	1.0	1348872	1349872	ELCue	VGS	54	3	False	lime	600	[1350 1830  405  675]	[ 90 570 405 675]
366.743	6.0	1350261	1356290	ShowFixation	ANTI	55	3	False	red	460	[405 885 405 675]	[1035 1515  405  675]
372.772	0.2	1356290	1356529	BlankScreen	ANTI	55	3	False	red	460	[405 885 405 675]	[1035 1515  405  675]
373.011	1.0	1356529	1357529	ELCue	ANTI	55	3	False	red	460	[405 885 405 675]	[1035 1515  405  675]
374.402	2.0	1357920	1359948	ShowFixation	VGS	56	3	False	lime	460	[1035 1515  405  675]	[405 885 405 675]
376.43	0.2	1359948	1360183	BlankScreen	VGS	56	3	False	lime	460	[1035 1515  405  675]	[405 885 405 675]
376.665	1.0	1360183	1361183	ELCue	VGS	56	3	False	lime	460	[1035 1515  405  675]	[405 885 405 675]
378.068	6.0	1361586	1367618	ShowFixation	ANTI	57	3	False	red	40	[1350 1830  405  675]	[ 90 570 405 675]
384.1	0.2	1367618	1367857	BlankScreen	ANTI	57	3	False	red	40	[1350 1830  405  675]	[ 90 570 405 675]
384.339	1.0	1367857	1368857	ELCue	ANTI	57	3	False	red	40	[1350 1830  405  675]	[ 90 570 405 675]
385.732	2.0	1369250	1371275	ShowFixation	VGS	58	3	False	lime	40	[ 90 570 405 675]	[1350 1830  405  675]
387.757	0.2	1371275	1371511	BlankScreen	VGS	58	3	False	lime	40	[ 90 570 405 675]	[1350 1830  405  675]
387.993	1.0	1371511	1372511	ELCue	VGS	58	3	False	lime	40	[ 90 570 405 675]	[1350 1830  405  675]
389.4	2.0	1372918	1374946	ShowFixation	ANTI	59	3	False	red	180	[1035 1515  405  675]	[405 885 405 675]
391.428	0.2	1374946	1375181	BlankScreen	ANTI	59	3	False	red	180	[1035 1515  405  675]	[405 885 405 675]
391.663	1.0	1375181	1376181	ELCue	ANTI	59	3	False	red	180	[1035 1515  405  675]	[405 885 405 675]
393.071	2.0	1376589	1378616	ShowFixation	VGS	60	3	False	lime	180	[405 885 405 675]	[1035 1515  405  675]
395.098	0.2	1378616	1378851	BlankScreen	VGS	60	3	False	lime	180	[405 885 405 675]	[1035 1515  405  675]
395.333	1.0	1378851	1379851	ELCue	VGS	60	3	False	lime	180	[405 885 405 675]	[1035 1515  405  675]
396.742	6.0	1380260	1386286	ShowFixation	VGS	61	3	False	lime	460	[1035 1515  405  675]	[405 885 405 675]
402.768	0.2	1386286	1386525	BlankScreen	VGS	61	3	False	lime	460	[1035 1515  405  675]	[405 885 405 675]
403.007	1.0	1386525	1387525	ELCue	VGS	61	3	False	lime	460	[1035 1515  405  675]	[405 885 405 675]
404.414	2.0	1387932	1389960	ShowFixation	VGS	62	3	False	lime	600	[1350 1830  405  675]	[ 90 570 405 675]
406.442	0.2	1389960	1390196	BlankScreen	VGS	62	3	False	lime	600	[1350 1830  405  675]	[ 90 570 405 675]
406.678	1.0	1390196	1391196	ELCue	VGS	62	3	False	lime	600	[1350 1830  405  675]	[ 90 570 405 675]
408.084	2.0	1391602	1393631	ShowFixation	ANTI	63	3	False	red	600	[ 90 570 405 675]	[1350 1830  405  675]
410.113	0.2	1393631	1393866	BlankScreen	ANTI	63	3	False	red	600	[ 90 570 405 675]	[1350 1830  405  675]
410.348	1.0	1393866	1394866	ELCue	ANTI	63	3	False	red	600	[ 90 570 405 675]	[1350 1830  405  675]
411.756	6.0	1395274	1401301	ShowFixation	VGS	64	3	False	lime	460	[1035 1515  405  675]	[405 885 405 675]
417.783	0.2	1401301	1401540	BlankScreen	VGS	64	3	False	lime	460	[1035 1515  405  675]	[405 885 405 675]
418.022	1.0	1401540	1402540	ELCue	VGS	64	3	False	lime	460	[1035 1515  405  675]	[405 885 405 675]
419.429	6.0	1402947	1408975	ShowFixation	ANTI	65	3	False	red	460	[405 885 405 675]	[1035 1515  405  675]
425.457	0.2	1408975	1409215	BlankScreen	ANTI	65	3	False	red	460	[405 885 405 675]	[1035 1515  405  675]
425.697	1.0	1409215	1410215	ELCue	ANTI	65	3	False	red	460	[405 885 405 675]	[1035 1515  405  675]
427.103	2.0	1410621	1412649	ShowFixation	ANTI	66	3	False	red	460	[405 885 405 675]	[1035 1515  405  675]
429.131	0.2	1412649	1412885	BlankScreen	ANTI	66	3	False	red	460	[405 885 405 675]	[1035 1515  405  675]
429.367	1.0	1412885	1413885	ELCue	ANTI	66	3	False	red	460	[405 885 405 675]	[1035 1515  405  675]
430.773	2.0	1414291	1416320	ShowFixation	ANTI	67	3	False	red	180	[1035 1515  405  675]	[405 885 405 675]
432.802	0.2	1416320	1416555	BlankScreen	ANTI	67	3	False	red	180	[1035 1515  405  675]	[405 885 405 675]
433.037	1.0	1416555	1417555	ELCue	ANTI	67	3	False	red	180	[1035 1515  405  675]	[405 885 405 675]
434.427	6.0	1417945	1423973	ShowFixation	ANTI	68	3	False	red	600	[ 90 570 405 675]	[1350 1830  405  675]
440.455	0.2	1423973	1424213	BlankScreen	ANTI	68	3	False	red	600	[ 90 570 405 675]	[1350 1830  405  675]
440.695	1.0	1424213	1425213	ELCue	ANTI	68	3	False	red	600	[ 90 570 405 675]	[1350 1830  405  675]
442.099	6.0	1425617	1431648	ShowFixation	ANTI	69	3	False	red	180	[1035 1515  405  675]	[405 885 405 675]
448.13	0.2	1431648	1431887	BlankScreen	ANTI	69	3	False	red	180	[1035 1515  405  675]	[405 885 405 675]
448.369	1.0	1431887	1432887	ELCue	ANTI	69	3	False	red	180	[1035 1515  405  675]	[405 885 405 675]
449.76	2.0	1433278	1435305	ShowFixation	ANTI	70	3	False	red	40	[1350 1830  405  675]	[ 90 570 405 675]
451.787	0.2	1435305	1435540	BlankScreen	ANTI	70	3	False	red	40	[1350 1830  405  675]	[ 90 570 405 675]
452.022	1.0	1435540	1436540	ELCue	ANTI	70	3	False	red	40	[1350 1830  405  675]	[ 90 570 405 675]
453.394	6.0	1436912	1442942	ShowFixation	ANTI	71	3	False	red	180	[1035 1515  405  675]	[405 885 405 675]
459.424	0.2	1442942	1443181	BlankScreen	ANTI	71	3	False	red	180	[1035 1515  405  675]	[405 885 405 675]
459.663	1.0	1443181	1444181	ELCue	ANTI	71	3	False	red	180	[1035 1515  405  675]	[405 885 405 675]
461.075	6.0	1444593	1450633	ShowFixation	ANTI	72	3	False	red	40	[1350 1830  405  675]	[ 90 570 405 675]
467.115	0.2	1450633	1450872	BlankScreen	ANTI	72	3	False	red	40	[1350 1830  405  675]	[ 90 570 405 675]
467.354	1.0	1450872	1451872	ELCue	ANTI	72	3	False	red	40	[1350 1830  405  675]	[ 90 570 405 675]
468.767	2.0	1452285	1454324	ShowFixation	ANTI	73	3	False	red	600	[ 90 570 405 675]	[1350 1830  405  675]
470.806	0.2	1454324	1454559	BlankScreen	ANTI	73	3	False	red	600	[ 90 570 405 675]	[1350 1830  405  675]
471.041	1.0	1454559	1455559	ELCue	ANTI	73	3	False	red	600	[ 90 570 405 675]	[1350 1830  405  675]
472.43	6.0	1455948	1461977	ShowFixation	ANTI	74	3	False	red	600	[ 90 570 405 675]	[1350 1830  405  675]
478.459	0.2	1461977	1462217	BlankScreen	ANTI	74	3	False	red	600	[ 90 570 405 675]	[1350 1830  405  675]
478.699	1.0	1462217	1463217	ELCue	ANTI	74	3	False	red	600	[ 90 570 405 675]	[1350 1830  405  675]
480.106	6.0	1463624	1469652	ShowFixation	VGS	75	3	False	lime	180	[405 885 405 675]	[1035 1515  405  675]
486.134	0.2	1469652	1469891	BlankScreen	VGS	75	3	False	lime	180	[405 885 405 675]	[1035 1515  405  675]
486.373	1.0	1469891	1470891	ELCue	VGS	75	3	False	lime	180	[405 885 405 675]	[1035 1515  405  675]
487.787	2.0	1471305	1473343	ShowFixation	VGS	76	3	False	lime	40	[ 90 570 405 675]	[1350 1830  405  675]
489.825	0.2	1473343	1473578	BlankScreen	VGS	76	3	False	lime	40	[ 90 570 405 675]	[1350 1830  405  675]
490.06	1.0	1473578	1474578	ELCue	VGS	76	3	False	lime	40	[ 90 570 405 675]	[1350 1830  405  675]
491.437	2.0	1474955	1476980	ShowFixation	ANTI	77	3	False	red	460	[405 885 405 675]	[1035 1515  405  675]
493.463	0.2	1476981	1477215	BlankScreen	ANTI	77	3	False	red	460	[405 885 405 675]	[1035 1515  405  675]
493.698	1.0	1477216	1478216	ELCue	ANTI	77	3	False	red	460	[405 885 405 675]	[1035 1515  405  675]
495.104	6.0	1478622	1484651	ShowFixation	VGS	78	3	False	lime	600	[1350 1830  405  675]	[ 90 570 405 675]
501.133	0.2	1484651	1484890	BlankScreen	VGS	78	3	False	lime	600	[1350 1830  405  675]	[ 90 570 405 675]
501.372	1.0	1484890	1485890	ELCue	VGS	78	3	False	lime	600	[1350 1830  405  675]	[ 90 570 405 675]
502.778	2.0	1486296	1488325	ShowFixation	VGS	79	3	False	lime	180	[405 885 405 675]	[1035 1515  405  675]
504.807	0.2	1488325	1488560	BlankScreen	VGS	79	3	False	lime	180	[405 885 405 675]	[1035 1515  405  675]
505.042	1.0	1488560	1489560	ELCue	VGS	79	3	False	lime	180	[405 885 405 675]	[1035 1515  405  675]
506.447	2.0	1489965	1491995	ShowFixation	ANTI	80	3	False	red	40	[1350 1830  405  675]	[ 90 570 405 675]
508.477	0.2	1491995	1492231	BlankScreen	ANTI	80	3	False	red	40	[1350 1830  405  675]	[ 90 570 405 675]
508.713	1.0	1492231	1493231	ELCue	ANTI	80	3	False	red	40	[1350 1830  405  675]	[ 90 570 405 675]
584.921	6.0	1568439	1574473	ShowFixation	ANTI	81	4	False	red	460	[405 885 405 675]	[1035 1515  405  675]
590.955	0.2	1574473	1574712	BlankScreen	ANTI	81	4	False	red	460	[405 885 405 675]	[1035 1515  405  675]
591.194	1.0	1574712	1575712	ELCue	ANTI	81	4	False	red	460	[405 885 405 675]	[1035 1515  405  675]
592.603	6.0	1576121	1582147	ShowFixation	VGS	82	4	False	lime	40	[ 90 570 405 675]	[1350 1830  405  675]
598.629	0.2	1582147	1582386	BlankScreen	VGS	82	4	False	lime	40	[ 90 570 405 675]	[1350 1830  405  675]
598.868	1.0	1582386	1583386	ELCue	VGS	82	4	False	lime	40	[ 90 570 405 675]	[1350 1830  405  675]
600.274	6.0	1583792	1589821	ShowFixation	VGS	83	4	False	lime	460	[1035 1515  405  675]	[405 885 405 675]
606.303	0.2	1589821	1590060	BlankScreen	VGS	83	4	False	lime	460	[1035 1515  405  675]	[405 885 405 675]
606.542	1.0	1590060	1591060	ELCue	VGS	83	4	False	lime	460	[1035 1515  405  675]	[405 885 405 675]
607.949	2.0	1591467	1593495	ShowFixation	VGS	84	4	False	lime	600	[1350 1830  405  675]	[ 90 570 405 675]
609.977	0.2	1593495	1593731	BlankScreen	VGS	84	4	False	lime	600	[1350 1830  405  675]	[ 90 570 405 675]
610.213	1.0	1593731	1594731	ELCue	VGS	84	4	False	lime	600	[1350 1830  405  675]	[ 90 570 405 675]
611.619	6.0	1595137	1601166	ShowFixation	ANTI	85	4	False	red	600	[ 90 570 405 675]	[1350 1830  405  675]
617.648	0.2	1601166	1601405	BlankScreen	ANTI	85	4	False	red	600	[ 90 570 405 675]	[1350 1830  405  675]
617.887	1.0	1601405	1602405	ELCue	ANTI	85	4	False	red	600	[ 90 570 405 675]	[1350 1830  405  675]
619.296	2.0	1602814	1604840	ShowFixation	VGS	86	4	False	lime	180	[405 885 405 675]	[1035 1515  405  675]
621.322	0.2	1604840	1605075	BlankScreen	VGS	86	4	False	lime	180	[405 885 405 675]	[1035 1515  405  675]
621.557	1.0	1605075	1606075	ELCue	VGS	86	4	False	lime	180	[405 885 405 675]	[1035 1515  405  675]
622.967	6.0	1606485	1612510	ShowFixation	ANTI	87	4	False	red	40	[1350 1830  405  675]	[ 90 570 405 675]
628.993	0.2	1612511	1612749	BlankScreen	ANTI	87	4	False	red	40	[1350 1830  405  675]	[ 90 570 405 675]
629.232	1.0	1612750	1613750	ELCue	ANTI	87	4	False	red	40	[1350 1830  405  675]	[ 90 570 405 675]
630.636	6.0	1614154	1620185	ShowFixation	ANTI	88	4	False	red	40	[1350 1830  405  675]	[ 90 570 405 675]
636.667	0.2	1620185	1620424	BlankScreen	ANTI	88	4	False	red	40	[1350 1830  405  675]	[ 90 570 405 675]
636.907	1.0	1620425	1621425	ELCue	ANTI	88	4	False	red	40	[1350 1830  405  675]	[ 90 570 405 675]
638.313	6.0	1621831	1627860	ShowFixation	ANTI	89	4	False	red	180	[1035 1515  405  675]	[405 885 405 675]
644.342	0.2	1627860	1628099	BlankScreen	ANTI	89	4	False	red	180	[1035 1515  405  675]	[405 885 405 675]
644.581	1.0	1628099	1629099	ELCue	ANTI	89	4	False	red	180	[1035 1515  405  675]	[405 885 405 675]
645.989	6.0	1629507	1635534	ShowFixation	VGS	90	4	False	lime	180	[405 885 405 675]	[1035 1515  405  675]
652.016	0.2	1635534	1635773	BlankScreen	VGS	90	4	False	lime	180	[405 885 405 675]	[1035 1515  405  675]
652.255	1.0	1635773	1636773	ELCue	VGS	90	4	False	lime	180	[405 885 405 675]	[1035 1515  405  675]
653.641	6.0	1637159	1643191	ShowFixation	VGS	91	4	False	lime	40	[ 90 570 405 675]	[1350 1830  405  675]
659.673	0.2	1643191	1643431	BlankScreen	VGS	91	4	False	lime	40	[ 90 570 405 675]	[1350 1830  405  675]
659.913	1.0	1643431	1644431	ELCue	VGS	91	4	False	lime	40	[ 90 570 405 675]	[1350 1830  405  675]
661.325	2.0	1644843	1646882	ShowFixation	ANTI	92	4	False	red	600	[ 90 570 405 675]	[1350 1830  405  675]
663.364	0.2	1646882	1647118	BlankScreen	ANTI	92	4	False	red	600	[ 90 570 405 675]	[1350 1830  405  675]
663.6	1.0	1647118	1648118	ELCue	ANTI	92	4	False	red	600	[ 90 570 405 675]	[1350 1830  405  675]
665.008	2.0	1648526	1650553	ShowFixation	ANTI	93	4	False	red	40	[1350 1830  405  675]	[ 90 570 405 675]
667.035	0.2	1650553	1650788	BlankScreen	ANTI	93	4	False	red	40	[1350 1830  405  675]	[ 90 570 405 675]
667.27	1.0	1650788	1651788	ELCue	ANTI	93	4	False	red	40	[1350 1830  405  675]	[ 90 570 405 675]
668.672	2.0	1652190	1654223	ShowFixation	ANTI	94	4	False	red	460	[405 885 405 675]	[1035 1515  405  675]
670.705	0.2	1654223	1654458	BlankScreen	ANTI	94	4	False	red	460	[405 885 405 675]	[1035 1515  405  675]
670.94	1.0	1654458	1655458	ELCue	ANTI	94	4	False	red	460	[405 885 405 675]	[1035 1515  405  675]
672.319	6.0	1655837	1661877	ShowFixation	ANTI	95	4	False	red	600	[ 90 570 405 675]	[1350 1830  405  675]
678.359	0.2	1661877	1662116	BlankScreen	ANTI	95	4	False	red	600	[ 90 570 405 675]	[1350 1830  405  675]
678.598	1.0	1662116	1663116	ELCue	ANTI	95	4	False	red	600	[ 90 570 405 675]	[1350 1830  405  675]
680.005	2.0	1663523	1665551	ShowFixation	VGS	96	4	False	lime	460	[1035 1515  405  675]	[405 885 405 675]
682.033	0.2	1665551	1665786	BlankScreen	VGS	96	4	False	lime	460	[1035 1515  405  675]	[405 885 405 675]
682.268	1.0	1665786	1666786	ELCue	VGS	96	4	False	lime	460	[1035 1515  405  675]	[405 885 405 675]
683.66	6.0	1667178	1673204	ShowFixation	ANTI	97	4	False	red	460	[405 885 405 675]	[1035 1515  405  675]
689.686	0.2	1673204	1673444	BlankScreen	ANTI	97	4	False	red	460	[405 885 405 675]	[1035 1515  405  675]
689.926	1.0	1673444	1674444	ELCue	ANTI	97	4	False	red	460	[405 885 405 675]	[1035 1515  405  675]
691.295	6.0	1674813	1680845	ShowFixation	VGS	98	4	False	lime	600	[1350 1830  405  675]	[ 90 570 405 675]
697.327	0.2	1680845	1681085	BlankScreen	VGS	98	4	False	lime	600	[1350 1830  405  675]	[ 90 570 405 675]
697.567	1.0	1681085	1682085	ELCue	VGS	98	4	False	lime	600	[1350 1830  405  675]	[ 90 570 405 675]
698.973	2.0	1682491	1684519	ShowFixation	ANTI	99	4	False	red	600	[ 90 570 405 675]	[1350 1830  405  675]
701.001	0.2	1684519	1684755	BlankScreen	ANTI	99	4	False	red	600	[ 90 570 405 675]	[1350 1830  405  675]
701.237	1.0	1684755	1685755	ELCue	ANTI	99	4	False	red	600	[ 90 570 405 675]	[1350 1830  405  675]
702.654	2.0	1686172	1688206	ShowFixation	ANTI	100	4	False	red	180	[1035 1515  405  675]	[405 885 405 675]
704.688	0.2	1688206	1688442	BlankScreen	ANTI	100	4	False	red	180	[1035 1515  405  675]	[405 885 405 675]
704.924	1.0	1688442	1689442	ELCue	ANTI	100	4	False	red	180	[1035 1515  405  675]	[405 885 405 675]
706.33	2.0	1689848	1691877	ShowFixation	ANTI	101	4	False	red	180	[1035 1515  405  675]	[405 885 405 675]
708.359	0.2	1691877	1692112	BlankScreen	ANTI	101	4	False	red	180	[1035 1515  405  675]	[405 885 405 675]
708.594	1.0	1692112	1693112	ELCue	ANTI	101	4	False	red	180	[1035 1515  405  675]	[405 885 405 675]
710.002	6.0	1693520	1699547	ShowFixation	ANTI	102	4	False	red	180	[1035 1515  405  675]	[405 885 405 675]
716.029	0.2	1699547	1699786	BlankScreen	ANTI	102	4	False	red	180	[1035 1515  405  675]	[405 885 405 675]
716.268	1.0	1699786	1700786	ELCue	ANTI	102	4	False	red	180	[1035 1515  405  675]	[405 885 405 675]
717.662	2.0	1701180	1703205	ShowFixation	VGS	103	4	False	lime	40	[ 90 570 405 675]	[1350 1830  405  675]
719.687	0.2	1703205	1703440	BlankScreen	VGS	103	4	False	lime	40	[ 90 570 405 675]	[1350 1830  405  675]
719.922	1.0	1703440	1704440	ELCue	VGS	103	4	False	lime	40	[ 90 570 405 675]	[1350 1830  405  675]
721.33	6.0	1704848	1710875	ShowFixation	VGS	104	4	False	lime	180	[405 885 405 675]	[1035 1515  405  675]
727.357	0.2	1710875	1711114	BlankScreen	VGS	104	4	False	lime	180	[405 885 405 675]	[1035 1515  405  675]
727.596	1.0	1711114	1712114	ELCue	VGS	104	4	False	lime	180	[405 885 405 675]	[1035 1515  405  675]
728.988	2.0	1712506	1714532	ShowFixation	VGS	105	4	False	lime	180	[405 885 405 675]	[1035 1515  405  675]
731.014	0.2	1714532	1714768	BlankScreen	VGS	105	4	False	lime	180	[405 885 405 675]	[1035 1515  405  675]
731.25	1.0	1714768	1715768	ELCue	VGS	105	4	False	lime	180	[405 885 405 675]	[1035 1515  405  675]
732.657	2.0	1716175	1718203	ShowFixation	ANTI	106	4	False	red	460	[405 885 405 675]	[1035 1515  405  675]
734.685	0.2	1718203	1718438	BlankScreen	ANTI	106	4	False	red	460	[405 885 405 675]	[1035 1515  405  675]
734.92	1.0	1718438	1719438	ELCue	ANTI	106	4	False	red	460	[405 885 405 675]	[1035 1515  405  675]
736.33	2.0	1719848	1721873	ShowFixation	VGS	107	4	False	lime	600	[1350 1830  405  675]	[ 90 570 405 675]
738.355	0.2	1721873	1722108	BlankScreen	VGS	107	4	False	lime	600	[1350 1830  405  675]	[ 90 570 405 675]
738.59	1.0	1722108	1723108	ELCue	VGS	107	4	False	lime	600	[1350 1830  405  675]	[ 90 570 405 675]
739.999	2.0	1723517	1725543	ShowFixation	VGS	108	4	False	lime	460	[1035 1515  405  675]	[405 885 405 675]
742.025	0.2	1725543	1725779	BlankScreen	VGS	108	4	False	lime	460	[1035 1515  405  675]	[405 885 405 675]
742.261	1.0	1725779	1726779	ELCue	VGS	108	4	False	lime	460	[1035 1515  405  675]	[405 885 405 675]
743.671	6.0	1727189	1733214	ShowFixation	VGS	109	4	False	lime	600	[1350 1830  405  675]	[ 90 570 405 675]
749.696	0.2	1733214	1733453	BlankScreen	VGS	109	4	False	lime	600	[1350 1830  405  675]	[ 90 570 405 675]
749.935	1.0	1733453	1734453	ELCue	VGS	109	4	False	lime	600	[1350 1830  405  675]	[ 90 570 405 675]
751.344	2.0	1734862	1736888	ShowFixation	ANTI	110	4	False	red	40	[1350 1830  405  675]	[ 90 570 405 675]
753.37	0.2	1736888	1737123	BlankScreen	ANTI	110	4	False	red	40	[1350 1830  405  675]	[ 90 570 405 675]
753.605	1.0	1737123	1738123	ELCue	ANTI	110	4	False	red	40	[1350 1830  405  675]	[ 90 570 405 675]
755.009	2.0	1738527	1740558	ShowFixation	VGS	111	4	False	lime	40	[ 90 570 405 675]	[1350 1830  405  675]
757.041	0.2	1740559	1740793	BlankScreen	VGS	111	4	False	lime	40	[ 90 570 405 675]	[1350 1830  405  675]
757.275	1.0	1740793	1741793	ELCue	VGS	111	4	False	lime	40	[ 90 570 405 675]	[1350 1830  405  675]
758.666	6.0	1742184	1748212	ShowFixation	VGS	112	4	False	lime	460	[1035 1515  405  675]	[405 885 405 675]
764.695	0.2	1748213	1748451	BlankScreen	VGS	112	4	False	lime	460	[1035 1515  405  675]	[405 885 405 675]
764.934	1.0	1748452	1749452	ELCue	VGS	112	4	False	lime	460	[1035 1515  405  675]	[405 885 405 675]
