onset	duration	startTime	stopTime	eventIdentifier	trial_type	trial_number	block_number	is_practice	fixation_color	cue_side	aoi_correct	aoi_incorrect
0.151	6.0	3062839	3068864	ShowFixation	VGS	1	1	True	lime	600	[1350 1830  405  675]	[ 90 570 405 675]
6.176	0.2	3068864	3069104	BlankScreen	VGS	1	1	True	lime	600	[1350 1830  405  675]	[ 90 570 405 675]
6.416	1.0	3069104	3070144	ELCue	VGS	1	1	True	lime	600	[1350 1830  405  675]	[ 90 570 405 675]
7.878	2.0	3070566	3073189	ShowFixation	VGS	2	1	True	lime	460	[1035 1515  405  675]	[405 885 405 675]
10.501	0.2	3073189	3073425	BlankScreen	VGS	2	1	True	lime	460	[1035 1515  405  675]	[405 885 405 675]
10.737	1.0	3073425	3074465	ELCue	VGS	2	1	True	lime	460	[1035 1515  405  675]	[405 885 405 675]
12.191	2.0	3074879	3077494	ShowFixation	VGS	3	1	True	lime	180	[405 885 405 675]	[1035 1515  405  675]
14.806	0.2	3077494	3077712	BlankScreen	VGS	3	1	True	lime	180	[405 885 405 675]	[1035 1515  405  675]
15.024	1.0	3077712	3078736	ELCue	VGS	3	1	True	lime	180	[405 885 405 675]	[1035 1515  405  675]
16.447	2.0	3079135	3081781	ShowFixation	ANTI	4	1	True	red	180	[1035 1515  405  675]	[405 885 405 675]
19.093	0.2	3081781	3082016	BlankScreen	ANTI	4	1	True	red	180	[1035 1515  405  675]	[405 885 405 675]
19.328	1.0	3082016	3083053	ELCue	ANTI	4	1	True	red	180	[1035 1515  405  675]	[405 885 405 675]
20.774	6.0	3083462	3090069	ShowFixation	ANTI	5	1	True	red	180	[1035 1515  405  675]	[405 885 405 675]
27.381	0.2	3090069	3090308	BlankScreen	ANTI	5	1	True	red	180	[1035 1515  405  675]	[405 885 405 675]
27.62	1.0	3090308	3091345	ELCue	ANTI	5	1	True	red	180	[1035 1515  405  675]	[405 885 405 675]
29.081	6.0	3091769	3098394	ShowFixation	ANTI	6	1	True	red	40	[1350 1830  405  675]	[ 90 570 405 675]
35.706	0.2	3098394	3098633	BlankScreen	ANTI	6	1	True	red	40	[1350 1830  405  675]	[ 90 570 405 675]
35.945	1.0	3098633	3099670	ELCue	ANTI	6	1	True	red	40	[1350 1830  405  675]	[ 90 570 405 675]
37.4	2.0	3100088	3102718	ShowFixation	ANTI	7	1	True	red	40	[1350 1830  405  675]	[ 90 570 405 675]
40.03	0.2	3102718	3102954	BlankScreen	ANTI	7	1	True	red	40	[1350 1830  405  675]	[ 90 570 405 675]
40.266	1.0	3102954	3103991	ELCue	ANTI	7	1	True	red	40	[1350 1830  405  675]	[ 90 570 405 675]
41.709	2.0	3104397	3107006	ShowFixation	VGS	8	1	True	lime	600	[1350 1830  405  675]	[ 90 570 405 675]
44.318	0.2	3107006	3107225	BlankScreen	VGS	8	1	True	lime	600	[1350 1830  405  675]	[ 90 570 405 675]
44.537	1.0	3107225	3108248	ELCue	VGS	8	1	True	lime	600	[1350 1830  405  675]	[ 90 570 405 675]
45.977	6.0	3108665	3115294	ShowFixation	ANTI	9	1	True	red	600	[ 90 570 405 675]	[1350 1830  405  675]
52.606	0.2	3115294	3115533	BlankScreen	ANTI	9	1	True	red	600	[ 90 570 405 675]	[1350 1830  405  675]
52.845	1.0	3115533	3116574	ELCue	ANTI	9	1	True	red	600	[ 90 570 405 675]	[1350 1830  405  675]
54.308	2.0	3116996	3119618	ShowFixation	ANTI	10	1	True	red	460	[405 885 405 675]	[1035 1515  405  675]
56.93	0.2	3119618	3119854	BlankScreen	ANTI	10	1	True	red	460	[405 885 405 675]	[1035 1515  405  675]
57.166	1.0	3119854	3120892	ELCue	ANTI	10	1	True	red	460	[405 885 405 675]	[1035 1515  405  675]
58.622	6.0	3121310	3127939	ShowFixation	VGS	11	1	True	lime	460	[1035 1515  405  675]	[405 885 405 675]
65.251	0.2	3127939	3128179	BlankScreen	VGS	11	1	True	lime	460	[1035 1515  405  675]	[405 885 405 675]
65.491	1.0	3128179	3129219	ELCue	VGS	11	1	True	lime	460	[1035 1515  405  675]	[405 885 405 675]
66.946	2.0	3129634	3132264	ShowFixation	ANTI	12	1	True	red	600	[ 90 570 405 675]	[1350 1830  405  675]
69.576	0.2	3132264	3132500	BlankScreen	ANTI	12	1	True	red	600	[ 90 570 405 675]	[1350 1830  405  675]
69.812	1.0	3132500	3133541	ELCue	ANTI	12	1	True	red	600	[ 90 570 405 675]	[1350 1830  405  675]
71.271	6.0	3133959	3140585	ShowFixation	ANTI	13	1	True	red	460	[405 885 405 675]	[1035 1515  405  675]
77.897	0.2	3140585	3140824	BlankScreen	ANTI	13	1	True	red	460	[405 885 405 675]	[1035 1515  405  675]
78.136	1.0	3140824	3141863	ELCue	ANTI	13	1	True	red	460	[405 885 405 675]	[1035 1515  405  675]
79.593	6.0	3142281	3148910	ShowFixation	VGS	14	1	True	lime	40	[ 90 570 405 675]	[1350 1830  405  675]
86.222	0.2	3148910	3149149	BlankScreen	VGS	14	1	True	lime	40	[ 90 570 405 675]	[1350 1830  405  675]
86.461	1.0	3149149	3150190	ELCue	VGS	14	1	True	lime	40	[ 90 570 405 675]	[1350 1830  405  675]
87.918	2.0	3150606	3153218	ShowFixation	VGS	15	1	True	lime	40	[ 90 570 405 675]	[1350 1830  405  675]
90.53	0.2	3153218	3153437	BlankScreen	VGS	15	1	True	lime	40	[ 90 570 405 675]	[1350 1830  405  675]
90.749	1.0	3153437	3154461	ELCue	VGS	15	1	True	lime	40	[ 90 570 405 675]	[1350 1830  405  675]
92.19	6.0	3154878	3161506	ShowFixation	VGS	16	1	True	lime	180	[405 885 405 675]	[1035 1515  405  675]
98.818	0.2	3161506	3161746	BlankScreen	VGS	16	1	True	lime	180	[405 885 405 675]	[1035 1515  405  675]
99.058	1.0	3161746	3162786	ELCue	VGS	16	1	True	lime	180	[405 885 405 675]	[1035 1515  405  675]
124.695	2.0	3187383	3189422	ShowFixation	ANTI	17	2	False	red	600	[ 90 570 405 675]	[1350 1830  405  675]
126.734	0.2	3189422	3189657	BlankScreen	ANTI	17	2	False	red	600	[ 90 570 405 675]	[1350 1830  405  675]
126.969	1.0	3189657	3190657	ELCue	ANTI	17	2	False	red	600	[ 90 570 405 675]	[1350 1830  405  675]
128.393	2.0	3191081	3193109	ShowFixation	VGS	18	2	False	lime	40	[ 90 570 405 675]	[1350 1830  405  675]
130.421	0.2	3193109	3193344	BlankScreen	VGS	18	2	False	lime	40	[ 90 570 405 675]	[1350 1830  405  675]
130.656	1.0	3193344	3194344	ELCue	VGS	18	2	False	lime	40	[ 90 570 405 675]	[1350 1830  405  675]
132.082	6.0	3194770	3200796	ShowFixation	ANTI	19	2	False	red	40	[1350 1830  405  675]	[ 90 570 405 675]
138.108	0.2	3200796	3201035	BlankScreen	ANTI	19	2	False	red	40	[1350 1830  405  675]	[ 90 570 405 675]
138.347	1.0	3201035	3202035	ELCue	ANTI	19	2	False	red	40	[1350 1830  405  675]	[ 90 570 405 675]
139.768	6.0	3202456	3208486	ShowFixation	ANTI	20	2	False	red	600	[ 90 570 405 675]	[1350 1830  405  675]
145.798	0.2	3208486	3208726	BlankScreen	ANTI	20	2	False	red	600	[ 90 570 405 675]	[1350 1830  405  675]
146.038	1.0	3208726	3209726	ELCue	ANTI	20	2	False	red	600	[ 90 570 405 675]	[1350 1830  405  675]
147.443	6.0	3210131	3216161	ShowFixation	ANTI	21	2	False	red	460	[405 885 405 675]	[1035 1515  405  675]
153.473	0.2	3216161	3216400	BlankScreen	ANTI	21	2	False	red	460	[405 885 405 675]	[1035 1515  405  675]
153.712	1.0	3216400	3217400	ELCue	ANTI	21	2	False	red	460	[405 885 405 675]	[1035 1515  405  675]
155.136	2.0	3217824	3219852	ShowFixation	VGS	22	2	False	lime	600	[1350 1830  405  675]	[ 90 570 405 675]
157.164	0.2	3219852	3220087	BlankScreen	VGS	22	2	False	lime	600	[1350 1830  405  675]	[ 90 570 405 675]
157.399	1.0	3220087	3221087	ELCue	VGS	22	2	False	lime	600	[1350 1830  405  675]	[ 90 570 405 675]
158.818	6.0	3221506	3227539	ShowFixation	VGS	23	2	False	lime	40	[ 90 570 405 675]	[1350 1830  405  675]
164.851	0.2	3227539	3227778	BlankScreen	VGS	23	2	False	lime	40	[ 90 570 405 675]	[1350 1830  405  675]
165.09	1.0	3227778	3228778	ELCue	VGS	23	2	False	lime	40	[ 90 570 405 675]	[1350 1830  405  675]
166.514	6.0	3229202	3235229	ShowFixation	VGS	24	2	False	lime	180	[405 885 405 675]	[1035 1515  405  675]
172.541	0.2	3235229	3235469	BlankScreen	VGS	24	2	False	lime	180	[405 885 405 675]	[1035 1515  405  675]
172.781	1.0	3235469	3236469	ELCue	VGS	24	2	False	lime	180	[405 885 405 675]	[1035 1515  405  675]
174.204	6.0	3236892	3242920	ShowFixation	VGS	25	2	False	lime	600	[1350 1830  405  675]	[ 90 570 405 675]
180.232	0.2	3242920	3243160	BlankScreen	VGS	25	2	False	lime	600	[1350 1830  405  675]	[ 90 570 405 675]
180.472	1.0	3243160	3244160	ELCue	VGS	25	2	False	lime	600	[1350 1830  405  675]	[ 90 570 405 675]
181.895	2.0	3244583	3246611	ShowFixation	ANTI	26	2	False	red	40	[1350 1830  405  675]	[ 90 570 405 675]
183.923	0.2	3246611	3246847	BlankScreen	ANTI	26	2	False	red	40	[1350 1830  405  675]	[ 90 570 405 675]
184.159	1.0	3246847	3247847	ELCue	ANTI	26	2	False	red	40	[1350 1830  405  675]	[ 90 570 405 675]
185.584	2.0	3248272	3250298	ShowFixation	VGS	27	2	False	lime	460	[1035 1515  405  675]	[405 885 405 675]
187.61	0.2	3250298	3250534	BlankScreen	VGS	27	2	False	lime	460	[1035 1515  405  675]	[405 885 405 675]
187.846	1.0	3250534	3251534	ELCue	VGS	27	2	False	lime	460	[1035 1515  405  675]	[405 885 405 675]
189.266	2.0	3251954	3253985	ShowFixation	VGS	28	2	False	lime	40	[ 90 570 405 675]	[1350 1830  405  675]
191.297	0.2	3253985	3254221	BlankScreen	VGS	28	2	False	lime	40	[ 90 570 405 675]	[1350 1830  405  675]
191.533	1.0	3254221	3255221	ELCue	VGS	28	2	False	lime	40	[ 90 570 405 675]	[1350 1830  405  675]
192.954	2.0	3255642	3257672	ShowFixation	ANTI	29	2	False	red	40	[1350 1830  405  675]	[ 90 570 405 675]
194.984	0.2	3257672	3257908	BlankScreen	ANTI	29	2	False	red	40	[1350 1830  405  675]	[ 90 570 405 675]
195.22	1.0	3257908	3258908	ELCue	ANTI	29	2	False	red	40	[1350 1830  405  675]	[ 90 570 405 675]
196.642	2.0	3259330	3261359	ShowFixation	VGS	30	2	False	lime	460	[1035 1515  405  675]	[405 885 405 675]
198.671	0.2	3261359	3261595	BlankScreen	VGS	30	2	False	lime	460	[1035 1515  405  675]	[405 885 405 675]
198.907	1.0	3261595	3262595	ELCue	VGS	30	2	False	lime	460	[1035 1515  405  675]	[405 885 405 675]
200.329	2.0	3263017	3265046	ShowFixation	ANTI	31	2	False	red	460	[405 885 405 675]	[1035 1515  405  675]
202.358	0.2	3265046	3265282	BlankScreen	ANTI	31	2	False	red	460	[405 885 405 675]	[1035 1515  405  675]
202.594	1.0	3265282	3266282	ELCue	ANTI	31	2	False	red	460	[405 885 405 675]	[1035 1515  405  675]
204.014	6.0	3266702	3272733	ShowFixation	VGS	32	2	False	lime	40	[ 90 570 405 675]	[1350 1830  405  675]
210.045	0.2	3272733	3272972	BlankScreen	VGS	32	2	False	lime	40	[ 90 570 405 675]	[1350 1830  405  675]
210.284	1.0	3272972	3273972	ELCue	VGS	32	2	False	lime	40	[ 90 570 405 675]	[1350 1830  405  675]
211.706	6.0	3274394	3280424	ShowFixation	VGS	33	2	False	lime	460	[1035 1515  405  675]	[405 885 405 675]
217.736	0.2	3280424	3280663	BlankScreen	VGS	33	2	False	lime	460	[1035 1515  405  675]	[405 885 405 675]
217.975	1.0	3280663	3281663	ELCue	VGS	33	2	False	lime	460	[1035 1515  405  675]	[405 885 405 675]
219.4	2.0	3282088	3284115	ShowFixation	VGS	34	2	False	lime	180	[405 885 405 675]	[1035 1515  405  675]
221.428	0.2	3284116	3284350	BlankScreen	VGS	34	2	False	lime	180	[405 885 405 675]	[1035 1515  405  675]
221.662	1.0	3284350	3285350	ELCue	VGS	34	2	False	lime	180	[405 885 405 675]	[1035 1515  405  675]
223.081	6.0	3285769	3291802	ShowFixation	ANTI	35	2	False	red	180	[1035 1515  405  675]	[405 885 405 675]
229.114	0.2	3291802	3292041	BlankScreen	ANTI	35	2	False	red	180	[1035 1515  405  675]	[405 885 405 675]
229.354	1.0	3292042	3293042	ELCue	ANTI	35	2	False	red	180	[1035 1515  405  675]	[405 885 405 675]
230.778	6.0	3293466	3299494	ShowFixation	ANTI	36	2	False	red	40	[1350 1830  405  675]	[ 90 570 405 675]
236.806	0.2	3299494	3299733	BlankScreen	ANTI	36	2	False	red	40	[1350 1830  405  675]	[ 90 570 405 675]
237.045	1.0	3299733	3300733	ELCue	ANTI	36	2	False	red	40	[1350 1830  405  675]	[ 90 570 405 675]
238.466	6.0	3301154	3307185	ShowFixation	VGS	37	2	False	lime	180	[405 885 405 675]	[1035 1515  405  675]
244.497	0.2	3307185	3307424	BlankScreen	VGS	37	2	False	lime	180	[405 885 405 675]	[1035 1515  405  675]
244.736	1.0	3307424	3308424	ELCue	VGS	37	2	False	lime	180	[405 885 405 675]	[1035 1515  405  675]
246.163	2.0	3308851	3310876	ShowFixation	ANTI	38	2	False	red	460	[405 885 405 675]	[1035 1515  405  675]
248.188	0.2	3310876	3311111	BlankScreen	ANTI	38	2	False	red	460	[405 885 405 675]	[1035 1515  405  675]
248.423	1.0	3311111	3312111	ELCue	ANTI	38	2	False	red	460	[405 885 405 675]	[1035 1515  405  675]
249.849	2.0	3312537	3314563	ShowFixation	ANTI	39	2	False	red	600	[ 90 570 405 675]	[1350 1830  405  675]
251.875	0.2	3314563	3314798	BlankScreen	ANTI	39	2	False	red	600	[ 90 570 405 675]	[1350 1830  405  675]
252.11	1.0	3314798	3315798	ELCue	ANTI	39	2	False	red	600	[ 90 570 405 675]	[1350 1830  405  675]
253.535	6.0	3316223	3322250	ShowFixation	VGS	40	2	False	lime	460	[1035 1515  405  675]	[405 885 405 675]
259.562	0.2	3322250	3322489	BlankScreen	VGS	40	2	False	lime	460	[1035 1515  405  675]	[405 885 405 675]
259.801	1.0	3322489	3323489	ELCue	VGS	40	2	False	lime	460	[1035 1515  405  675]	[405 885 405 675]
261.222	2.0	3323910	3325941	ShowFixation	VGS	41	2	False	lime	600	[1350 1830  405  675]	[ 90 570 405 675]
263.253	0.2	3325941	3326176	BlankScreen	VGS	41	2	False	lime	600	[1350 1830  405  675]	[ 90 570 405 675]
263.488	1.0	3326176	3327176	ELCue	VGS	41	2	False	lime	600	[1350 1830  405  675]	[ 90 570 405 675]
264.908	6.0	3327596	3333628	ShowFixation	VGS	42	2	False	lime	600	[1350 1830  405  675]	[ 90 570 405 675]
270.94	0.2	3333628	3333867	BlankScreen	VGS	42	2	False	lime	600	[1350 1830  405  675]	[ 90 570 405 675]
271.179	1.0	3333867	3334867	ELCue	VGS	42	2	False	lime	600	[1350 1830  405  675]	[ 90 570 405 675]
272.6	6.0	3335288	3341318	ShowFixation	ANTI	43	2	False	red	180	[1035 1515  405  675]	[405 885 405 675]
278.63	0.2	3341318	3341558	BlankScreen	ANTI	43	2	False	red	180	[1035 1515  405  675]	[405 885 405 675]
278.87	1.0	3341558	3342558	ELCue	ANTI	43	2	False	red	180	[1035 1515  405  675]	[405 885 405 675]
280.291	6.0	3342979	3349009	ShowFixation	ANTI	44	2	False	red	600	[ 90 570 405 675]	[1350 1830  405  675]
286.321	0.2	3349009	3349249	BlankScreen	ANTI	44	2	False	red	600	[ 90 570 405 675]	[1350 1830  405  675]
286.561	1.0	3349249	3350249	ELCue	ANTI	44	2	False	red	600	[ 90 570 405 675]	[1350 1830  405  675]
287.985	2.0	3350673	3352700	ShowFixation	VGS	45	2	False	lime	180	[405 885 405 675]	[1035 1515  405  675]
290.012	0.2	3352700	3352936	BlankScreen	VGS	45	2	False	lime	180	[405 885 405 675]	[1035 1515  405  675]
290.248	1.0	3352936	3353936	ELCue	VGS	45	2	False	lime	180	[405 885 405 675]	[1035 1515  405  675]
291.673	2.0	3354361	3356387	ShowFixation	ANTI	46	2	False	red	180	[1035 1515  405  675]	[405 885 405 675]
293.699	0.2	3356387	3356623	BlankScreen	ANTI	46	2	False	red	180	[1035 1515  405  675]	[405 885 405 675]
293.935	1.0	3356623	3357623	ELCue	ANTI	46	2	False	red	180	[1035 1515  405  675]	[405 885 405 675]
295.357	6.0	3358045	3364074	ShowFixation	ANTI	47	2	False	red	460	[405 885 405 675]	[1035 1515  405  675]
301.386	0.2	3364074	3364314	BlankScreen	ANTI	47	2	False	red	460	[405 885 405 675]	[1035 1515  405  675]
301.626	1.0	3364314	3365314	ELCue	ANTI	47	2	False	red	460	[405 885 405 675]	[1035 1515  405  675]
303.052	2.0	3365740	3367765	ShowFixation	ANTI	48	2	False	red	180	[1035 1515  405  675]	[405 885 405 675]
305.077	0.2	3367765	3368000	BlankScreen	ANTI	48	2	False	red	180	[1035 1515  405  675]	[405 885 405 675]
305.312	1.0	3368000	3369000	ELCue	ANTI	48	2	False	red	180	[1035 1515  405  675]	[405 885 405 675]
331.298	6.0	3393986	3400026	ShowFixation	VGS	49	3	False	lime	40	[ 90 570 405 675]	[1350 1830  405  675]
337.338	0.2	3400026	3400266	BlankScreen	VGS	49	3	False	lime	40	[ 90 570 405 675]	[1350 1830  405  675]
337.578	1.0	3400266	3401266	ELCue	VGS	49	3	False	lime	40	[ 90 570 405 675]	[1350 1830  405  675]
339.002	6.0	3401690	3407717	ShowFixation	VGS	50	3	False	lime	600	[1350 1830  405  675]	[ 90 570 405 675]
345.029	0.2	3407717	3407957	BlankScreen	VGS	50	3	False	lime	600	[1350 1830  405  675]	[ 90 570 405 675]
345.269	1.0	3407957	3408957	ELCue	VGS	50	3	False	lime	600	[1350 1830  405  675]	[ 90 570 405 675]
346.69	2.0	3409378	3411408	ShowFixation	VGS	51	3	False	lime	40	[ 90 570 405 675]	[1350 1830  405  675]
348.72	0.2	3411408	3411644	BlankScreen	VGS	51	3	False	lime	40	[ 90 570 405 675]	[1350 1830  405  675]
348.956	1.0	3411644	3412644	ELCue	VGS	51	3	False	lime	40	[ 90 570 405 675]	[1350 1830  405  675]
350.375	6.0	3413063	3419095	ShowFixation	VGS	52	3	False	lime	40	[ 90 570 405 675]	[1350 1830  405  675]
356.408	0.2	3419096	3419334	BlankScreen	VGS	52	3	False	lime	40	[ 90 570 405 675]	[1350 1830  405  675]
356.646	1.0	3419334	3420334	ELCue	VGS	52	3	False	lime	40	[ 90 570 405 675]	[1350 1830  405  675]
358.071	6.0	3420759	3426787	ShowFixation	ANTI	53	3	False	red	600	[ 90 570 405 675]	[1350 1830  405  675]
364.099	0.2	3426787	3427026	BlankScreen	ANTI	53	3	False	red	600	[ 90 570 405 675]	[1350 1830  405  675]
364.338	1.0	3427026	3428026	ELCue	ANTI	53	3	False	red	600	[ 90 570 405 675]	[1350 1830  405  675]
365.759	2.0	3428447	3430478	ShowFixation	ANTI	54	3	False	red	460	[405 885 405 675]	[1035 1515  405  675]
367.79	0.2	3430478	3430713	BlankScreen	ANTI	54	3	False	red	460	[405 885 405 675]	[1035 1515  405  675]
368.025	1.0	3430713	3431713	ELCue	ANTI	54	3	False	red	460	[405 885 405 675]	[1035 1515  405  675]
369.448	2.0	3432136	3434165	ShowFixation	ANTI	55	3	False	red	600	[ 90 570 405 675]	[1350 1830  405  675]
371.477	0.2	3434165	3434400	BlankScreen	ANTI	55	3	False	red	600	[ 90 570 405 675]	[1350 1830  405  675]
371.712	1.0	3434400	3435400	ELCue	ANTI	55	3	False	red	600	[ 90 570 405 675]	[1350 1830  405  675]
373.139	2.0	3435827	3437852	ShowFixation	ANTI	56	3	False	red	600	[ 90 570 405 675]	[1350 1830  405  675]
375.164	0.2	3437852	3438087	BlankScreen	ANTI	56	3	False	red	600	[ 90 570 405 675]	[1350 1830  405  675]
375.399	1.0	3438087	3439087	ELCue	ANTI	56	3	False	red	600	[ 90 570 405 675]	[1350 1830  405  675]
376.827	6.0	3439515	3445556	ShowFixation	ANTI	57	3	False	red	40	[1350 1830  405  675]	[ 90 570 405 675]
382.868	0.2	3445556	3445795	BlankScreen	ANTI	57	3	False	red	40	[1350 1830  405  675]	[ 90 570 405 675]
383.107	1.0	3445795	3446795	ELCue	ANTI	57	3	False	red	40	[1350 1830  405  675]	[ 90 570 405 675]
384.532	6.0	3447220	3453247	ShowFixation	VGS	58	3	False	lime	460	[1035 1515  405  675]	[405 885 405 675]
390.559	0.2	3453247	3453486	BlankScreen	VGS	58	3	False	lime	460	[1035 1515  405  675]	[405 885 405 675]
390.798	1.0	3453486	3454486	ELCue	VGS	58	3	False	lime	460	[1035 1515  405  675]	[405 885 405 675]
392.224	2.0	3454912	3456937	ShowFixation	VGS	59	3	False	lime	600	[1350 1830  405  675]	[ 90 570 405 675]
394.249	0.2	3456937	3457173	BlankScreen	VGS	59	3	False	lime	600	[1350 1830  405  675]	[ 90 570 405 675]
394.485	1.0	3457173	3458173	ELCue	VGS	59	3	False	lime	600	[1350 1830  405  675]	[ 90 570 405 675]
395.909	6.0	3458597	3464624	ShowFixation	ANTI	60	3	False	red	460	[405 885 405 675]	[1035 1515  405  675]
401.936	0.2	3464624	3464864	BlankScreen	ANTI	60	3	False	red	460	[405 885 405 675]	[1035 1515  405  675]
402.176	1.0	3464864	3465864	ELCue	ANTI	60	3	False	red	460	[405 885 405 675]	[1035 1515  405  675]
403.601	6.0	3466289	3472315	ShowFixation	ANTI	61	3	False	red	40	[1350 1830  405  675]	[ 90 570 405 675]
409.627	0.2	3472315	3472555	BlankScreen	ANTI	61	3	False	red	40	[1350 1830  405  675]	[ 90 570 405 675]
409.867	1.0	3472555	3473555	ELCue	ANTI	61	3	False	red	40	[1350 1830  405  675]	[ 90 570 405 675]
411.291	2.0	3473979	3476006	ShowFixation	ANTI	62	3	False	red	180	[1035 1515  405  675]	[405 885 405 675]
413.318	0.2	3476006	3476242	BlankScreen	ANTI	62	3	False	red	180	[1035 1515  405  675]	[405 885 405 675]
413.554	1.0	3476242	3477242	ELCue	ANTI	62	3	False	red	180	[1035 1515  405  675]	[405 885 405 675]
415.129	2.0	3477817	3479843	ShowFixation	VGS	63	3	False	lime	180	[405 885 405 675]	[1035 1515  405  675]
417.155	0.2	3479843	3480079	BlankScreen	VGS	63	3	False	lime	180	[405 885 405 675]	[1035 1515  405  675]
417.391	1.0	3480079	3481079	ELCue	VGS	63	3	False	lime	180	[405 885 405 675]	[1035 1515  405  675]
418.816	6.0	3481504	3487530	ShowFixation	ANTI	64	3	False	red	180	[1035 1515  405  675]	[405 885 405 675]
424.842	0.2	3487530	3487770	BlankScreen	ANTI	64	3	False	red	180	[1035 1515  405  675]	[405 885 405 675]
425.082	1.0	3487770	3488770	ELCue	ANTI	64	3	False	red	180	[1035 1515  405  675]	[405 885 405 675]
426.503	6.0	3489191	3495221	ShowFixation	VGS	65	3	False	lime	180	[405 885 405 675]	[1035 1515  405  675]
432.533	0.2	3495221	3495461	BlankScreen	VGS	65	3	False	lime	180	[405 885 405 675]	[1035 1515  405  675]
432.773	1.0	3495461	3496461	ELCue	VGS	65	3	False	lime	180	[405 885 405 675]	[1035 1515  405  675]
434.194	6.0	3496882	3502912	ShowFixation	VGS	66	3	False	lime	600	[1350 1830  405  675]	[ 90 570 405 675]
440.224	0.2	3502912	3503151	BlankScreen	VGS	66	3	False	lime	600	[1350 1830  405  675]	[ 90 570 405 675]
440.463	1.0	3503151	3504151	ELCue	VGS	66	3	False	lime	600	[1350 1830  405  675]	[ 90 570 405 675]
441.888	6.0	3504576	3510603	ShowFixation	ANTI	67	3	False	red	600	[ 90 570 405 675]	[1350 1830  405  675]
447.915	0.2	3510603	3510842	BlankScreen	ANTI	67	3	False	red	600	[ 90 570 405 675]	[1350 1830  405  675]
448.154	1.0	3510842	3511842	ELCue	ANTI	67	3	False	red	600	[ 90 570 405 675]	[1350 1830  405  675]
449.576	6.0	3512264	3518294	ShowFixation	VGS	68	3	False	lime	180	[405 885 405 675]	[1035 1515  405  675]
455.606	0.2	3518294	3518533	BlankScreen	VGS	68	3	False	lime	180	[405 885 405 675]	[1035 1515  405  675]
455.845	1.0	3518533	3519533	ELCue	VGS	68	3	False	lime	180	[405 885 405 675]	[1035 1515  405  675]
457.268	2.0	3519956	3521985	ShowFixation	VGS	69	3	False	lime	460	[1035 1515  405  675]	[405 885 405 675]
459.297	0.2	3521985	3522220	BlankScreen	VGS	69	3	False	lime	460	[1035 1515  405  675]	[405 885 405 675]
459.532	1.0	3522220	3523220	ELCue	VGS	69	3	False	lime	460	[1035 1515  405  675]	[405 885 405 675]
460.951	2.0	3523639	3525672	ShowFixation	VGS	70	3	False	lime	180	[405 885 405 675]	[1035 1515  405  675]
462.984	0.2	3525672	3525907	BlankScreen	VGS	70	3	False	lime	180	[405 885 405 675]	[1035 1515  405  675]
463.219	1.0	3525907	3526907	ELCue	VGS	70	3	False	lime	180	[405 885 405 675]	[1035 1515  405  675]
464.638	2.0	3527326	3529359	ShowFixation	VGS	71	3	False	lime	600	[1350 1830  405  675]	[ 90 570 405 675]
466.671	0.2	3529359	3529594	BlankScreen	VGS	71	3	False	lime	600	[1350 1830  405  675]	[ 90 570 405 675]
466.906	1.0	3529594	3530594	ELCue	VGS	71	3	False	lime	600	[1350 1830  405  675]	[ 90 570 405 675]
468.33	6.0	3531018	3537046	ShowFixation	VGS	72	3	False	lime	460	[1035 1515  405  675]	[405 885 405 675]
474.358	0.2	3537046	3537285	BlankScreen	VGS	72	3	False	lime	460	[1035 1515  405  675]	[405 885 405 675]
474.597	1.0	3537285	3538285	ELCue	VGS	72	3	False	lime	460	[1035 1515  405  675]	[405 885 405 675]
476.025	2.0	3538713	3540753	ShowFixation	ANTI	73	3	False	red	40	[1350 1830  405  675]	[ 90 570 405 675]
478.065	0.2	3540753	3540989	BlankScreen	ANTI	73	3	False	red	40	[1350 1830  405  675]	[ 90 570 405 675]
478.301	1.0	3540989	3541989	ELCue	ANTI	73	3	False	red	40	[1350 1830  405  675]	[ 90 570 405 675]
479.728	6.0	3542416	3548440	ShowFixation	ANTI	74	3	False	red	180	[1035 1515  405  675]	[405 885 405 675]
485.752	0.2	3548440	3548680	BlankScreen	ANTI	74	3	False	red	180	[1035 1515  405  675]	[405 885 405 675]
485.993	1.0	3548681	3549681	ELCue	ANTI	74	3	False	red	180	[1035 1515  405  675]	[405 885 405 675]
487.416	2.0	3550104	3552131	ShowFixation	ANTI	75	3	False	red	180	[1035 1515  405  675]	[405 885 405 675]
489.444	0.2	3552132	3552367	BlankScreen	ANTI	75	3	False	red	180	[1035 1515  405  675]	[405 885 405 675]
489.679	1.0	3552367	3553367	ELCue	ANTI	75	3	False	red	180	[1035 1515  405  675]	[405 885 405 675]
491.097	2.0	3553785	3555818	ShowFixation	VGS	76	3	False	lime	460	[1035 1515  405  675]	[405 885 405 675]
493.131	0.2	3555819	3556054	BlankScreen	VGS	76	3	False	lime	460	[1035 1515  405  675]	[405 885 405 675]
493.367	1.0	3556055	3557055	ELCue	VGS	76	3	False	lime	460	[1035 1515  405  675]	[405 885 405 675]
494.788	2.0	3557476	3559505	ShowFixation	ANTI	77	3	False	red	40	[1350 1830  405  675]	[ 90 570 405 675]
496.818	0.2	3559506	3559741	BlankScreen	ANTI	77	3	False	red	40	[1350 1830  405  675]	[ 90 570 405 675]
497.054	1.0	3559742	3560742	ELCue	ANTI	77	3	False	red	40	[1350 1830  405  675]	[ 90 570 405 675]
498.474	2.0	3561162	3563193	ShowFixation	VGS	78	3	False	lime	40	[ 90 570 405 675]	[1350 1830  405  675]
500.505	0.2	3563193	3563429	BlankScreen	VGS	78	3	False	lime	40	[ 90 570 405 675]	[1350 1830  405  675]
500.741	1.0	3563429	3564429	ELCue	VGS	78	3	False	lime	40	[ 90 570 405 675]	[1350 1830  405  675]
502.167	6.0	3564855	3570897	ShowFixation	ANTI	79	3	False	red	460	[405 885 405 675]	[1035 1515  405  675]
508.209	0.2	3570897	3571136	BlankScreen	ANTI	79	3	False	red	460	[405 885 405 675]	[1035 1515  405  675]
508.448	1.0	3571136	3572136	ELCue	ANTI	79	3	False	red	460	[405 885 405 675]	[1035 1515  405  675]
509.867	2.0	3572555	3574588	ShowFixation	ANTI	80	3	False	red	460	[405 885 405 675]	[1035 1515  405  675]
511.9	0.2	3574588	3574823	BlankScreen	ANTI	80	3	False	red	460	[405 885 405 675]	[1035 1515  405  675]
512.135	1.0	3574823	3575823	ELCue	ANTI	80	3	False	red	460	[405 885 405 675]	[1035 1515  405  675]
560.332	6.0	3623020	3629054	ShowFixation	VGS	81	4	False	lime	460	[1035 1515  405  675]	[405 885 405 675]
566.366	0.2	3629054	3629294	BlankScreen	VGS	81	4	False	lime	460	[1035 1515  405  675]	[405 885 405 675]
566.606	1.0	3629294	3630294	ELCue	VGS	81	4	False	lime	460	[1035 1515  405  675]	[405 885 405 675]
568.027	6.0	3630715	3636745	ShowFixation	ANTI	82	4	False	red	180	[1035 1515  405  675]	[405 885 405 675]
574.057	0.2	3636745	3636984	BlankScreen	ANTI	82	4	False	red	180	[1035 1515  405  675]	[405 885 405 675]
574.296	1.0	3636984	3637984	ELCue	ANTI	82	4	False	red	180	[1035 1515  405  675]	[405 885 405 675]
575.715	6.0	3638403	3644436	ShowFixation	ANTI	83	4	False	red	600	[ 90 570 405 675]	[1350 1830  405  675]
581.748	0.2	3644436	3644675	BlankScreen	ANTI	83	4	False	red	600	[ 90 570 405 675]	[1350 1830  405  675]
581.987	1.0	3644675	3645675	ELCue	ANTI	83	4	False	red	600	[ 90 570 405 675]	[1350 1830  405  675]
583.411	2.0	3646099	3648127	ShowFixation	VGS	84	4	False	lime	460	[1035 1515  405  675]	[405 885 405 675]
585.439	0.2	3648127	3648362	BlankScreen	VGS	84	4	False	lime	460	[1035 1515  405  675]	[405 885 405 675]
585.674	1.0	3648362	3649362	ELCue	VGS	84	4	False	lime	460	[1035 1515  405  675]	[405 885 405 675]
587.094	2.0	3649782	3651814	ShowFixation	ANTI	85	4	False	red	40	[1350 1830  405  675]	[ 90 570 405 675]
589.126	0.2	3651814	3652049	BlankScreen	ANTI	85	4	False	red	40	[1350 1830  405  675]	[ 90 570 405 675]
589.361	1.0	3652049	3653049	ELCue	ANTI	85	4	False	red	40	[1350 1830  405  675]	[ 90 570 405 675]
590.786	2.0	3653474	3655501	ShowFixation	VGS	86	4	False	lime	180	[405 885 405 675]	[1035 1515  405  675]
592.813	0.2	3655501	3655736	BlankScreen	VGS	86	4	False	lime	180	[405 885 405 675]	[1035 1515  405  675]
593.048	1.0	3655736	3656736	ELCue	VGS	86	4	False	lime	180	[405 885 405 675]	[1035 1515  405  675]
594.469	2.0	3657157	3659188	ShowFixation	VGS	87	4	False	lime	600	[1350 1830  405  675]	[ 90 570 405 675]
596.5	0.2	3659188	3659423	BlankScreen	VGS	87	4	False	lime	600	[1350 1830  405  675]	[ 90 570 405 675]
596.735	1.0	3659423	3660423	ELCue	VGS	87	4	False	lime	600	[1350 1830  405  675]	[ 90 570 405 675]
598.161	6.0	3660849	3666875	ShowFixation	VGS	88	4	False	lime	460	[1035 1515  405  675]	[405 885 405 675]
604.187	0.2	3666875	3667114	BlankScreen	VGS	88	4	False	lime	460	[1035 1515  405  675]	[405 885 405 675]
604.426	1.0	3667114	3668114	ELCue	VGS	88	4	False	lime	460	[1035 1515  405  675]	[405 885 405 675]
605.842	2.0	3668530	3670566	ShowFixation	ANTI	89	4	False	red	460	[405 885 405 675]	[1035 1515  405  675]
607.878	0.2	3670566	3670801	BlankScreen	ANTI	89	4	False	red	460	[405 885 405 675]	[1035 1515  405  675]
608.113	1.0	3670801	3671801	ELCue	ANTI	89	4	False	red	460	[405 885 405 675]	[1035 1515  405  675]
609.536	2.0	3672224	3674253	ShowFixation	ANTI	90	4	False	red	180	[1035 1515  405  675]	[405 885 405 675]
611.565	0.2	3674253	3674488	BlankScreen	ANTI	90	4	False	red	180	[1035 1515  405  675]	[405 885 405 675]
611.8	1.0	3674488	3675488	ELCue	ANTI	90	4	False	red	180	[1035 1515  405  675]	[405 885 405 675]
613.226	6.0	3675914	3681940	ShowFixation	VGS	91	4	False	lime	600	[1350 1830  405  675]	[ 90 570 405 675]
619.253	0.2	3681941	3682180	BlankScreen	VGS	91	4	False	lime	600	[1350 1830  405  675]	[ 90 570 405 675]
619.492	1.0	3682180	3683180	ELCue	VGS	91	4	False	lime	600	[1350 1830  405  675]	[ 90 570 405 675]
620.914	6.0	3683602	3689632	ShowFixation	ANTI	92	4	False	red	600	[ 90 570 405 675]	[1350 1830  405  675]
626.944	0.2	3689632	3689871	BlankScreen	ANTI	92	4	False	red	600	[ 90 570 405 675]	[1350 1830  405  675]
627.183	1.0	3689871	3690871	ELCue	ANTI	92	4	False	red	600	[ 90 570 405 675]	[1350 1830  405  675]
628.589	2.0	3691277	3693306	ShowFixation	VGS	93	4	False	lime	40	[ 90 570 405 675]	[1350 1830  405  675]
630.618	0.2	3693306	3693541	BlankScreen	VGS	93	4	False	lime	40	[ 90 570 405 675]	[1350 1830  405  675]
630.853	1.0	3693541	3694541	ELCue	VGS	93	4	False	lime	40	[ 90 570 405 675]	[1350 1830  405  675]
632.279	6.0	3694967	3700993	ShowFixation	ANTI	94	4	False	red	40	[1350 1830  405  675]	[ 90 570 405 675]
638.305	0.2	3700993	3701232	BlankScreen	ANTI	94	4	False	red	40	[1350 1830  405  675]	[ 90 570 405 675]
638.544	1.0	3701232	3702232	ELCue	ANTI	94	4	False	red	40	[1350 1830  405  675]	[ 90 570 405 675]
639.97	6.0	3702658	3708684	ShowFixation	VGS	95	4	False	lime	600	[1350 1830  405  675]	[ 90 570 405 675]
645.996	0.2	3708684	3708923	BlankScreen	VGS	95	4	False	lime	600	[1350 1830  405  675]	[ 90 570 405 675]
646.235	1.0	3708923	3709923	ELCue	VGS	95	4	False	lime	600	[1350 1830  405  675]	[ 90 570 405 675]
647.662	6.0	3710350	3716375	ShowFixation	ANTI	96	4	False	red	40	[1350 1830  405  675]	[ 90 570 405 675]
653.687	0.2	3716375	3716614	BlankScreen	ANTI	96	4	False	red	40	[1350 1830  405  675]	[ 90 570 405 675]
653.926	1.0	3716614	3717614	ELCue	ANTI	96	4	False	red	40	[1350 1830  405  675]	[ 90 570 405 675]
655.35	6.0	3718038	3724066	ShowFixation	VGS	97	4	False	lime	180	[405 885 405 675]	[1035 1515  405  675]
661.378	0.2	3724066	3724305	BlankScreen	VGS	97	4	False	lime	180	[405 885 405 675]	[1035 1515  405  675]
661.617	1.0	3724305	3725305	ELCue	VGS	97	4	False	lime	180	[405 885 405 675]	[1035 1515  405  675]
663.038	2.0	3725726	3727757	ShowFixation	ANTI	98	4	False	red	600	[ 90 570 405 675]	[1350 1830  405  675]
665.069	0.2	3727757	3727992	BlankScreen	ANTI	98	4	False	red	600	[ 90 570 405 675]	[1350 1830  405  675]
665.304	1.0	3727992	3728992	ELCue	ANTI	98	4	False	red	600	[ 90 570 405 675]	[1350 1830  405  675]
666.73	2.0	3729418	3731444	ShowFixation	ANTI	99	4	False	red	460	[405 885 405 675]	[1035 1515  405  675]
668.756	0.2	3731444	3731679	BlankScreen	ANTI	99	4	False	red	460	[405 885 405 675]	[1035 1515  405  675]
668.991	1.0	3731679	3732679	ELCue	ANTI	99	4	False	red	460	[405 885 405 675]	[1035 1515  405  675]
670.415	2.0	3733103	3735131	ShowFixation	VGS	100	4	False	lime	180	[405 885 405 675]	[1035 1515  405  675]
672.443	0.2	3735131	3735366	BlankScreen	VGS	100	4	False	lime	180	[405 885 405 675]	[1035 1515  405  675]
672.678	1.0	3735366	3736366	ELCue	VGS	100	4	False	lime	180	[405 885 405 675]	[1035 1515  405  675]
674.1	2.0	3736788	3738817	ShowFixation	VGS	101	4	False	lime	460	[1035 1515  405  675]	[405 885 405 675]
676.129	0.2	3738817	3739053	BlankScreen	VGS	101	4	False	lime	460	[1035 1515  405  675]	[405 885 405 675]
676.365	1.0	3739053	3740053	ELCue	VGS	101	4	False	lime	460	[1035 1515  405  675]	[405 885 405 675]
677.791	6.0	3740479	3746504	ShowFixation	ANTI	102	4	False	red	460	[405 885 405 675]	[1035 1515  405  675]
683.816	0.2	3746504	3746744	BlankScreen	ANTI	102	4	False	red	460	[405 885 405 675]	[1035 1515  405  675]
684.056	1.0	3746744	3747744	ELCue	ANTI	102	4	False	red	460	[405 885 405 675]	[1035 1515  405  675]
685.48	6.0	3748168	3754195	ShowFixation	VGS	103	4	False	lime	40	[ 90 570 405 675]	[1350 1830  405  675]
691.507	0.2	3754195	3754435	BlankScreen	VGS	103	4	False	lime	40	[ 90 570 405 675]	[1350 1830  405  675]
691.747	1.0	3754435	3755435	ELCue	VGS	103	4	False	lime	40	[ 90 570 405 675]	[1350 1830  405  675]
693.169	2.0	3755857	3757886	ShowFixation	ANTI	104	4	False	red	600	[ 90 570 405 675]	[1350 1830  405  675]
695.198	0.2	3757886	3758122	BlankScreen	ANTI	104	4	False	red	600	[ 90 570 405 675]	[1350 1830  405  675]
695.434	1.0	3758122	3759122	ELCue	ANTI	104	4	False	red	600	[ 90 570 405 675]	[1350 1830  405  675]
696.86	6.0	3759548	3765573	ShowFixation	VGS	105	4	False	lime	180	[405 885 405 675]	[1035 1515  405  675]
702.885	0.2	3765573	3765813	BlankScreen	VGS	105	4	False	lime	180	[405 885 405 675]	[1035 1515  405  675]
703.125	1.0	3765813	3766813	ELCue	VGS	105	4	False	lime	180	[405 885 405 675]	[1035 1515  405  675]
704.55	6.0	3767238	3773264	ShowFixation	VGS	106	4	False	lime	40	[ 90 570 405 675]	[1350 1830  405  675]
710.576	0.2	3773264	3773503	BlankScreen	VGS	106	4	False	lime	40	[ 90 570 405 675]	[1350 1830  405  675]
710.815	1.0	3773503	3774503	ELCue	VGS	106	4	False	lime	40	[ 90 570 405 675]	[1350 1830  405  675]
712.239	2.0	3774927	3776955	ShowFixation	ANTI	107	4	False	red	40	[1350 1830  405  675]	[ 90 570 405 675]
714.267	0.2	3776955	3777190	BlankScreen	ANTI	107	4	False	red	40	[1350 1830  405  675]	[ 90 570 405 675]
714.502	1.0	3777190	3778190	ELCue	ANTI	107	4	False	red	40	[1350 1830  405  675]	[ 90 570 405 675]
715.926	6.0	3778614	3784642	ShowFixation	ANTI	108	4	False	red	180	[1035 1515  405  675]	[405 885 405 675]
721.954	0.2	3784642	3784881	BlankScreen	ANTI	108	4	False	red	180	[1035 1515  405  675]	[405 885 405 675]
722.193	1.0	3784881	3785881	ELCue	ANTI	108	4	False	red	180	[1035 1515  405  675]	[405 885 405 675]
723.619	2.0	3786307	3788333	ShowFixation	ANTI	109	4	False	red	180	[1035 1515  405  675]	[405 885 405 675]
725.645	0.2	3788333	3788568	BlankScreen	ANTI	109	4	False	red	180	[1035 1515  405  675]	[405 885 405 675]
725.88	1.0	3788568	3789568	ELCue	ANTI	109	4	False	red	180	[1035 1515  405  675]	[405 885 405 675]
727.304	2.0	3789992	3792020	ShowFixation	VGS	110	4	False	lime	40	[ 90 570 405 675]	[1350 1830  405  675]
729.332	0.2	3792020	3792255	BlankScreen	VGS	110	4	False	lime	40	[ 90 570 405 675]	[1350 1830  405  675]
729.567	1.0	3792255	3793255	ELCue	VGS	110	4	False	lime	40	[ 90 570 405 675]	[1350 1830  405  675]
730.99	6.0	3793678	3799707	ShowFixation	ANTI	111	4	False	red	460	[405 885 405 675]	[1035 1515  405  675]
737.019	0.2	3799707	3799946	BlankScreen	ANTI	111	4	False	red	460	[405 885 405 675]	[1035 1515  405  675]
737.258	1.0	3799946	3800946	ELCue	ANTI	111	4	False	red	460	[405 885 405 675]	[1035 1515  405  675]
738.678	2.0	3801366	3803398	ShowFixation	VGS	112	4	False	lime	600	[1350 1830  405  675]	[ 90 570 405 675]
740.71	0.2	3803398	3803633	BlankScreen	VGS	112	4	False	lime	600	[1350 1830  405  675]	[ 90 570 405 675]
740.946	1.0	3803634	3804634	ELCue	VGS	112	4	False	lime	600	[1350 1830  405  675]	[ 90 570 405 675]
