participant_id	condition	accuracy	reaction_time
sub-23680	congruent	1	0.626
sub-23680	congruent	1	0.378
sub-23680	incongruent	1	0.490
sub-23680	congruent	1	0.428
sub-23680	congruent	1	0.403
sub-23680	incongruent	1	0.805
sub-23680	congruent	1	0.472
sub-23680	incongruent	1	0.542
sub-23680	congruent	1	0.510
sub-23680	incongruent	1	0.546
sub-23680	incongruent	1	0.484
sub-23680	incongruent	1	0.539
sub-23680	incongruent	1	0.486
sub-23680	incongruent	1	0.510
sub-23680	incongruent	1	0.519
sub-23680	congruent	1	0.508
sub-23680	incongruent	1	0.545
sub-23680	incongruent	1	0.496
sub-23680	congruent	1	0.423
sub-23680	incongruent	1	0.482
sub-23680	incongruent	1	0.539
sub-23680	congruent	1	0.455
sub-23680	congruent	1	0.456
sub-23680	congruent	1	0.545
sub-23680	congruent	1	0.589
sub-23680	incongruent	1	0.638
sub-23680	congruent	1	0.427
sub-23680	incongruent	1	0.498
sub-23680	congruent	1	0.395
sub-23680	incongruent	1	0.514
sub-23680	congruent	1	0.412
sub-23680	incongruent	1	0.484
sub-23680	incongruent	1	0.484
sub-23680	incongruent	1	0.467
sub-23680	congruent	1	0.487
sub-23680	congruent	1	0.491
sub-23680	congruent	1	0.494
sub-23680	incongruent	1	0.546
sub-23680	congruent	1	0.460
sub-23680	congruent	1	0.483
sub-23680	incongruent	1	0.464
sub-23680	congruent	1	0.365
sub-23680	congruent	1	0.372
sub-23680	incongruent	1	0.522
sub-23680	incongruent	1	0.477
sub-23680	incongruent	1	0.445
sub-23680	incongruent	1	0.503
sub-23680	incongruent	1	0.442
sub-23680	incongruent	1	0.469
sub-23680	incongruent	1	0.447
sub-23680	congruent	1	0.351
sub-23680	incongruent	1	0.463
sub-23680	congruent	1	0.421
sub-23680	congruent	1	0.407
sub-23680	congruent	1	0.348
sub-23680	congruent	1	0.372
sub-23680	incongruent	1	0.467
sub-23680	congruent	1	0.390
sub-23680	congruent	1	0.374
sub-23680	congruent	1	0.453
sub-23680	incongruent	1	0.490
sub-23680	congruent	1	0.333
sub-23680	congruent	1	0.308
sub-23680	incongruent	0	0.332
sub-23680	congruent	1	0.394
sub-23680	congruent	1	0.385
sub-23680	congruent	1	0.422
sub-23680	congruent	1	0.400
sub-23680	congruent	1	0.398
sub-23680	incongruent	1	0.459
sub-23680	incongruent	1	0.519
sub-23680	congruent	1	0.391
sub-23680	congruent	1	0.365
sub-23680	congruent	1	0.366
sub-23680	incongruent	1	0.506
sub-23680	congruent	1	0.418
sub-23680	incongruent	1	0.479
sub-23680	incongruent	1	0.615
sub-23680	incongruent	1	0.422
sub-23680	incongruent	1	0.492
sub-23680	incongruent	1	0.429
sub-23680	incongruent	1	0.474
sub-23680	incongruent	1	0.472
sub-23680	incongruent	1	0.859
sub-23680	incongruent	1	0.498
sub-23680	incongruent	1	0.488
sub-23680	incongruent	1	0.439
sub-23680	incongruent	1	0.501
sub-23680	congruent	1	0.428
sub-23680	congruent	1	0.462
sub-23680	congruent	1	0.410
sub-23680	congruent	1	0.425
sub-23680	incongruent	1	0.465
sub-23680	incongruent	1	0.418
sub-23680	congruent	1	0.375
sub-23680	congruent	1	0.378
sub-23680	incongruent	1	0.432
sub-23680	congruent	1	0.478
sub-23680	congruent	1	0.357
sub-23680	congruent	1	0.387
sub-23680	incongruent	0	0.362
sub-23680	congruent	1	0.375
sub-23680	incongruent	1	0.416
sub-23680	incongruent	1	0.443
sub-23680	incongruent	1	0.447
sub-23680	incongruent	1	0.417
sub-23680	incongruent	1	0.408
sub-23680	incongruent	0	0.348
sub-23680	congruent	1	0.433
sub-23680	congruent	1	0.341
sub-23680	congruent	1	0.333
sub-23680	incongruent	1	0.453
sub-23680	incongruent	1	0.535
sub-23680	congruent	1	0.382
sub-23680	congruent	1	0.350
sub-23680	congruent	1	0.407
sub-23680	congruent	1	0.342
sub-23680	congruent	1	0.334
sub-23680	congruent	1	0.356
sub-23680	incongruent	1	0.489
sub-23680	congruent	1	0.389
sub-23680	incongruent	1	0.816
sub-23680	incongruent	1	0.461
sub-23680	incongruent	1	0.450
sub-23680	congruent	1	0.335
sub-23680	congruent	1	0.361
sub-23680	congruent	1	0.380
sub-23680	congruent	1	0.343
sub-23680	incongruent	1	0.459
sub-23680	congruent	1	0.361
sub-23680	incongruent	1	0.470
sub-23680	congruent	1	0.366
sub-23680	congruent	1	0.403
sub-23680	congruent	1	0.353
sub-23680	incongruent	1	0.430
sub-23680	congruent	1	0.404
sub-23680	congruent	1	0.414
sub-23680	incongruent	1	0.472
sub-23680	incongruent	1	0.474
sub-23680	congruent	1	0.362
sub-23680	incongruent	1	0.442
sub-23680	incongruent	1	0.459
sub-23680	incongruent	1	0.491
sub-23680	congruent	1	0.356
sub-23680	congruent	1	0.353
sub-23680	incongruent	1	0.446
sub-23680	congruent	1	0.347
sub-23680	congruent	1	0.397
sub-23680	incongruent	1	0.457
sub-23680	congruent	1	0.413
sub-23680	congruent	1	0.340
sub-23680	incongruent	1	0.460
sub-23680	congruent	1	0.434
sub-23680	congruent	1	0.322
sub-23680	incongruent	1	0.377
sub-23680	incongruent	1	0.409
sub-23680	incongruent	1	0.466
sub-23680	congruent	1	0.483
sub-23680	incongruent	1	0.436
sub-23680	incongruent	1	0.471
sub-23680	incongruent	1	0.445
sub-23680	incongruent	1	0.434
sub-23680	incongruent	1	0.419
sub-23680	congruent	1	0.385
sub-23680	congruent	1	0.364
sub-23680	congruent	1	0.404
sub-23680	congruent	1	0.333
sub-23680	incongruent	1	0.430
sub-23680	congruent	1	0.361
sub-23680	congruent	1	0.386
sub-23680	incongruent	1	0.441
sub-23680	incongruent	1	0.383
sub-23680	incongruent	1	0.392
sub-23680	incongruent	1	0.451
sub-23680	congruent	1	0.423
sub-23680	incongruent	1	0.451
sub-23680	congruent	1	0.510
sub-23680	incongruent	1	0.482
sub-23680	congruent	1	0.400
sub-23680	incongruent	1	0.433
sub-23680	congruent	1	0.574
sub-23680	congruent	1	0.313
sub-23680	incongruent	0	0.299
sub-23680	congruent	1	0.526
sub-23680	incongruent	1	0.374
sub-23680	incongruent	0	0.344
sub-23680	incongruent	1	0.481
sub-23680	congruent	1	0.372
sub-23680	incongruent	1	0.440
sub-23680	incongruent	1	0.387
sub-23680	incongruent	1	0.391
sub-23680	congruent	1	0.419
sub-23680	incongruent	0	0.342
sub-23680	incongruent	1	0.482
sub-23680	congruent	1	0.412
sub-23680	incongruent	1	0.510
sub-23680	congruent	1	0.415
sub-23680	congruent	1	0.369
sub-23680	congruent	1	0.357
sub-23680	congruent	1	0.389
sub-23680	incongruent	0	0.349
sub-23680	congruent	1	0.354
sub-23680	incongruent	0	0.390
sub-23680	incongruent	1	0.480
sub-23680	congruent	1	0.323
sub-23680	incongruent	1	0.436
sub-23680	congruent	1	0.332
sub-23680	congruent	1	0.395
sub-23680	incongruent	1	0.403
sub-23680	congruent	1	0.344
sub-23680	congruent	1	0.305
sub-23680	incongruent	1	0.274
sub-23680	congruent	1	0.288
sub-23680	incongruent	1	0.381
sub-23680	congruent	1	0.312
sub-23680	congruent	1	0.297
sub-23680	congruent	1	0.230
sub-23680	congruent	1	0.238
sub-23680	congruent	0	0.292
sub-23680	incongruent	1	0.462
sub-23680	incongruent	1	0.544
sub-23680	incongruent	0	0.343
sub-23680	incongruent	1	0.657
sub-23680	incongruent	1	0.381
sub-23680	incongruent	0	0.384
sub-23680	congruent	1	0.341
sub-23680	congruent	1	0.370
sub-23680	congruent	1	0.365
sub-23680	congruent	1	0.389
sub-23680	incongruent	1	0.503
sub-23680	incongruent	1	0.433
sub-23680	incongruent	1	0.434
sub-23680	congruent	1	0.356
sub-23680	incongruent	1	0.469
sub-23680	incongruent	1	0.439
sub-23680	congruent	1	0.382
sub-23680	incongruent	0	0.342
sub-23680	congruent	1	0.374
sub-23680	incongruent	1	0.497
sub-23680	congruent	1	0.339
