onset	duration	startTime	stopTime	eventIdentifier	trial_type	trial_number	block_number	is_practice	fixation_color	cue_side	aoi_correct	aoi_incorrect
0.145	2.0	1291739	1293773	ShowFixation	VGS	1	1	True	lime	600	[1350 1830  405  675]	[ 90 570 405 675]
2.179	0.2	1293773	1294009	BlankScreen	VGS	1	1	True	lime	600	[1350 1830  405  675]	[ 90 570 405 675]
2.415	1.0	1294009	1295049	ELCue	VGS	1	1	True	lime	600	[1350 1830  405  675]	[ 90 570 405 675]
3.841	6.0	1295435	1302094	ShowFixation	VGS	2	1	True	lime	180	[405 885 405 675]	[1035 1515  405  675]
10.5	0.2	1302094	1302333	BlankScreen	VGS	2	1	True	lime	180	[405 885 405 675]	[1035 1515  405  675]
10.74	1.0	1302334	1303374	ELCue	VGS	2	1	True	lime	180	[405 885 405 675]	[1035 1515  405  675]
12.185	2.0	1303779	1306402	ShowFixation	VGS	3	1	True	lime	180	[405 885 405 675]	[1035 1515  405  675]
14.809	0.2	1306403	1306621	BlankScreen	VGS	3	1	True	lime	180	[405 885 405 675]	[1035 1515  405  675]
15.028	1.0	1306622	1307645	ELCue	VGS	3	1	True	lime	180	[405 885 405 675]	[1035 1515  405  675]
16.45	6.0	1308044	1314691	ShowFixation	ANTI	4	1	True	red	600	[ 90 570 405 675]	[1350 1830  405  675]
23.097	0.2	1314691	1314930	BlankScreen	ANTI	4	1	True	red	600	[ 90 570 405 675]	[1350 1830  405  675]
23.336	1.0	1314930	1315970	ELCue	ANTI	4	1	True	red	600	[ 90 570 405 675]	[1350 1830  405  675]
24.782	6.0	1316376	1322999	ShowFixation	ANTI	5	1	True	red	180	[1035 1515  405  675]	[405 885 405 675]
31.405	0.2	1322999	1323238	BlankScreen	ANTI	5	1	True	red	180	[1035 1515  405  675]	[405 885 405 675]
31.644	1.0	1323238	1324278	ELCue	ANTI	5	1	True	red	180	[1035 1515  405  675]	[405 885 405 675]
33.087	6.0	1324681	1331307	ShowFixation	VGS	6	1	True	lime	460	[1035 1515  405  675]	[405 885 405 675]
39.713	0.2	1331307	1331547	BlankScreen	VGS	6	1	True	lime	460	[1035 1515  405  675]	[405 885 405 675]
39.953	1.0	1331547	1332586	ELCue	VGS	6	1	True	lime	460	[1035 1515  405  675]	[405 885 405 675]
41.398	2.0	1332992	1335615	ShowFixation	ANTI	7	1	True	red	180	[1035 1515  405  675]	[405 885 405 675]
44.021	0.2	1335615	1335834	BlankScreen	ANTI	7	1	True	red	180	[1035 1515  405  675]	[405 885 405 675]
44.24	1.0	1335834	1336857	ELCue	ANTI	7	1	True	red	180	[1035 1515  405  675]	[405 885 405 675]
45.669	2.0	1337263	1339903	ShowFixation	VGS	8	1	True	lime	40	[ 90 570 405 675]	[1350 1830  405  675]
48.309	0.2	1339903	1340138	BlankScreen	VGS	8	1	True	lime	40	[ 90 570 405 675]	[1350 1830  405  675]
48.544	1.0	1340138	1341178	ELCue	VGS	8	1	True	lime	40	[ 90 570 405 675]	[1350 1830  405  675]
49.987	6.0	1341581	1348207	ShowFixation	VGS	9	1	True	lime	40	[ 90 570 405 675]	[1350 1830  405  675]
56.613	0.2	1348207	1348447	BlankScreen	VGS	9	1	True	lime	40	[ 90 570 405 675]	[1350 1830  405  675]
56.853	1.0	1348447	1349487	ELCue	VGS	9	1	True	lime	40	[ 90 570 405 675]	[1350 1830  405  675]
58.289	6.0	1349883	1356532	ShowFixation	ANTI	10	1	True	red	460	[405 885 405 675]	[1035 1515  405  675]
64.938	0.2	1356532	1356771	BlankScreen	ANTI	10	1	True	red	460	[405 885 405 675]	[1035 1515  405  675]
65.177	1.0	1356771	1357812	ELCue	ANTI	10	1	True	red	460	[405 885 405 675]	[1035 1515  405  675]
66.589	2.0	1358183	1360857	ShowFixation	ANTI	11	1	True	red	460	[405 885 405 675]	[1035 1515  405  675]
69.263	0.2	1360857	1361092	BlankScreen	ANTI	11	1	True	red	460	[405 885 405 675]	[1035 1515  405  675]
69.498	1.0	1361092	1362133	ELCue	ANTI	11	1	True	red	460	[405 885 405 675]	[1035 1515  405  675]
70.944	6.0	1362538	1369178	ShowFixation	VGS	12	1	True	lime	600	[1350 1830  405  675]	[ 90 570 405 675]
77.584	0.2	1369178	1369417	BlankScreen	VGS	12	1	True	lime	600	[1350 1830  405  675]	[ 90 570 405 675]
77.823	1.0	1369417	1370457	ELCue	VGS	12	1	True	lime	600	[1350 1830  405  675]	[ 90 570 405 675]
79.268	2.0	1370862	1373486	ShowFixation	VGS	13	1	True	lime	460	[1035 1515  405  675]	[405 885 405 675]
81.892	0.2	1373486	1373705	BlankScreen	VGS	13	1	True	lime	460	[1035 1515  405  675]	[405 885 405 675]
82.111	1.0	1373705	1374728	ELCue	VGS	13	1	True	lime	460	[1035 1515  405  675]	[405 885 405 675]
83.525	2.0	1375119	1377774	ShowFixation	ANTI	14	1	True	red	40	[1350 1830  405  675]	[ 90 570 405 675]
86.18	0.2	1377774	1378009	BlankScreen	ANTI	14	1	True	red	40	[1350 1830  405  675]	[ 90 570 405 675]
86.415	1.0	1378009	1379049	ELCue	ANTI	14	1	True	red	40	[1350 1830  405  675]	[ 90 570 405 675]
87.861	2.0	1379455	1382078	ShowFixation	ANTI	15	1	True	red	600	[ 90 570 405 675]	[1350 1830  405  675]
90.484	0.2	1382078	1382297	BlankScreen	ANTI	15	1	True	red	600	[ 90 570 405 675]	[1350 1830  405  675]
90.703	1.0	1382297	1383320	ELCue	ANTI	15	1	True	red	600	[ 90 570 405 675]	[1350 1830  405  675]
92.134	6.0	1383728	1390365	ShowFixation	ANTI	16	1	True	red	40	[1350 1830  405  675]	[ 90 570 405 675]
98.771	0.2	1390365	1390605	BlankScreen	ANTI	16	1	True	red	40	[1350 1830  405  675]	[ 90 570 405 675]
99.011	1.0	1390605	1391646	ELCue	ANTI	16	1	True	red	40	[1350 1830  405  675]	[ 90 570 405 675]
136.63	2.0	1428224	1430260	ShowFixation	ANTI	17	2	False	red	180	[1035 1515  405  675]	[405 885 405 675]
138.666	0.2	1430260	1430495	BlankScreen	ANTI	17	2	False	red	180	[1035 1515  405  675]	[405 885 405 675]
138.901	1.0	1430495	1431495	ELCue	ANTI	17	2	False	red	180	[1035 1515  405  675]	[405 885 405 675]
140.309	6.0	1431903	1437930	ShowFixation	ANTI	18	2	False	red	40	[1350 1830  405  675]	[ 90 570 405 675]
146.336	0.2	1437930	1438169	BlankScreen	ANTI	18	2	False	red	40	[1350 1830  405  675]	[ 90 570 405 675]
146.575	1.0	1438169	1439169	ELCue	ANTI	18	2	False	red	40	[1350 1830  405  675]	[ 90 570 405 675]
147.984	2.0	1439578	1441604	ShowFixation	ANTI	19	2	False	red	460	[405 885 405 675]	[1035 1515  405  675]
150.01	0.2	1441604	1441840	BlankScreen	ANTI	19	2	False	red	460	[405 885 405 675]	[1035 1515  405  675]
150.246	1.0	1441840	1442840	ELCue	ANTI	19	2	False	red	460	[405 885 405 675]	[1035 1515  405  675]
151.655	2.0	1443249	1445275	ShowFixation	VGS	20	2	False	lime	180	[405 885 405 675]	[1035 1515  405  675]
153.681	0.2	1445275	1445510	BlankScreen	VGS	20	2	False	lime	180	[405 885 405 675]	[1035 1515  405  675]
153.916	1.0	1445510	1446510	ELCue	VGS	20	2	False	lime	180	[405 885 405 675]	[1035 1515  405  675]
155.324	2.0	1446918	1448945	ShowFixation	VGS	21	2	False	lime	600	[1350 1830  405  675]	[ 90 570 405 675]
157.351	0.2	1448945	1449180	BlankScreen	VGS	21	2	False	lime	600	[1350 1830  405  675]	[ 90 570 405 675]
157.586	1.0	1449180	1450180	ELCue	VGS	21	2	False	lime	600	[1350 1830  405  675]	[ 90 570 405 675]
158.99	2.0	1450584	1452615	ShowFixation	VGS	22	2	False	lime	40	[ 90 570 405 675]	[1350 1830  405  675]
161.021	0.2	1452615	1452850	BlankScreen	VGS	22	2	False	lime	40	[ 90 570 405 675]	[1350 1830  405  675]
161.256	1.0	1452850	1453850	ELCue	VGS	22	2	False	lime	40	[ 90 570 405 675]	[1350 1830  405  675]
162.663	2.0	1454257	1456285	ShowFixation	VGS	23	2	False	lime	600	[1350 1830  405  675]	[ 90 570 405 675]
164.691	0.2	1456285	1456521	BlankScreen	VGS	23	2	False	lime	600	[1350 1830  405  675]	[ 90 570 405 675]
164.927	1.0	1456521	1457521	ELCue	VGS	23	2	False	lime	600	[1350 1830  405  675]	[ 90 570 405 675]
166.331	2.0	1457925	1459956	ShowFixation	ANTI	24	2	False	red	600	[ 90 570 405 675]	[1350 1830  405  675]
168.362	0.2	1459956	1460191	BlankScreen	ANTI	24	2	False	red	600	[ 90 570 405 675]	[1350 1830  405  675]
168.597	1.0	1460191	1461191	ELCue	ANTI	24	2	False	red	600	[ 90 570 405 675]	[1350 1830  405  675]
170.002	2.0	1461596	1463626	ShowFixation	VGS	25	2	False	lime	180	[405 885 405 675]	[1035 1515  405  675]
172.032	0.2	1463626	1463861	BlankScreen	VGS	25	2	False	lime	180	[405 885 405 675]	[1035 1515  405  675]
172.267	1.0	1463861	1464861	ELCue	VGS	25	2	False	lime	180	[405 885 405 675]	[1035 1515  405  675]
173.659	2.0	1465253	1467280	ShowFixation	ANTI	26	2	False	red	600	[ 90 570 405 675]	[1350 1830  405  675]
175.686	0.2	1467280	1467515	BlankScreen	ANTI	26	2	False	red	600	[ 90 570 405 675]	[1350 1830  405  675]
175.921	1.0	1467515	1468515	ELCue	ANTI	26	2	False	red	600	[ 90 570 405 675]	[1350 1830  405  675]
177.298	6.0	1468892	1474917	ShowFixation	VGS	27	2	False	lime	460	[1035 1515  405  675]	[405 885 405 675]
183.323	0.2	1474917	1475156	BlankScreen	VGS	27	2	False	lime	460	[1035 1515  405  675]	[405 885 405 675]
183.562	1.0	1475156	1476156	ELCue	VGS	27	2	False	lime	460	[1035 1515  405  675]	[405 885 405 675]
184.973	6.0	1476567	1482607	ShowFixation	ANTI	28	2	False	red	600	[ 90 570 405 675]	[1350 1830  405  675]
191.013	0.2	1482607	1482847	BlankScreen	ANTI	28	2	False	red	600	[ 90 570 405 675]	[1350 1830  405  675]
191.253	1.0	1482847	1483847	ELCue	ANTI	28	2	False	red	600	[ 90 570 405 675]	[1350 1830  405  675]
192.658	6.0	1484252	1490282	ShowFixation	VGS	29	2	False	lime	40	[ 90 570 405 675]	[1350 1830  405  675]
198.688	0.2	1490282	1490521	BlankScreen	VGS	29	2	False	lime	40	[ 90 570 405 675]	[1350 1830  405  675]
198.927	1.0	1490521	1491521	ELCue	VGS	29	2	False	lime	40	[ 90 570 405 675]	[1350 1830  405  675]
200.373	2.0	1491967	1494006	ShowFixation	VGS	30	2	False	lime	460	[1035 1515  405  675]	[405 885 405 675]
202.412	0.2	1494006	1494241	BlankScreen	VGS	30	2	False	lime	460	[1035 1515  405  675]	[405 885 405 675]
202.647	1.0	1494241	1495241	ELCue	VGS	30	2	False	lime	460	[1035 1515  405  675]	[405 885 405 675]
204.053	2.0	1495647	1497676	ShowFixation	VGS	31	2	False	lime	460	[1035 1515  405  675]	[405 885 405 675]
206.082	0.2	1497676	1497912	BlankScreen	VGS	31	2	False	lime	460	[1035 1515  405  675]	[405 885 405 675]
206.318	1.0	1497912	1498912	ELCue	VGS	31	2	False	lime	460	[1035 1515  405  675]	[405 885 405 675]
207.727	2.0	1499321	1501347	ShowFixation	ANTI	32	2	False	red	460	[405 885 405 675]	[1035 1515  405  675]
209.753	0.2	1501347	1501582	BlankScreen	ANTI	32	2	False	red	460	[405 885 405 675]	[1035 1515  405  675]
209.988	1.0	1501582	1502582	ELCue	ANTI	32	2	False	red	460	[405 885 405 675]	[1035 1515  405  675]
211.396	6.0	1502990	1509017	ShowFixation	ANTI	33	2	False	red	460	[405 885 405 675]	[1035 1515  405  675]
217.423	0.2	1509017	1509256	BlankScreen	ANTI	33	2	False	red	460	[405 885 405 675]	[1035 1515  405  675]
217.662	1.0	1509256	1510256	ELCue	ANTI	33	2	False	red	460	[405 885 405 675]	[1035 1515  405  675]
219.072	6.0	1510666	1516691	ShowFixation	ANTI	34	2	False	red	460	[405 885 405 675]	[1035 1515  405  675]
225.097	0.2	1516691	1516930	BlankScreen	ANTI	34	2	False	red	460	[405 885 405 675]	[1035 1515  405  675]
225.336	1.0	1516930	1517930	ELCue	ANTI	34	2	False	red	460	[405 885 405 675]	[1035 1515  405  675]
226.748	2.0	1518342	1520383	ShowFixation	ANTI	35	2	False	red	40	[1350 1830  405  675]	[ 90 570 405 675]
228.789	0.2	1520383	1520618	BlankScreen	ANTI	35	2	False	red	40	[1350 1830  405  675]	[ 90 570 405 675]
229.024	1.0	1520618	1521618	ELCue	ANTI	35	2	False	red	40	[1350 1830  405  675]	[ 90 570 405 675]
230.415	6.0	1522009	1528037	ShowFixation	VGS	36	2	False	lime	600	[1350 1830  405  675]	[ 90 570 405 675]
236.443	0.2	1528037	1528276	BlankScreen	VGS	36	2	False	lime	600	[1350 1830  405  675]	[ 90 570 405 675]
236.682	1.0	1528276	1529276	ELCue	VGS	36	2	False	lime	600	[1350 1830  405  675]	[ 90 570 405 675]
238.088	2.0	1529682	1531711	ShowFixation	ANTI	37	2	False	red	40	[1350 1830  405  675]	[ 90 570 405 675]
240.117	0.2	1531711	1531946	BlankScreen	ANTI	37	2	False	red	40	[1350 1830  405  675]	[ 90 570 405 675]
240.352	1.0	1531946	1532946	ELCue	ANTI	37	2	False	red	40	[1350 1830  405  675]	[ 90 570 405 675]
241.743	6.0	1533337	1539364	ShowFixation	ANTI	38	2	False	red	40	[1350 1830  405  675]	[ 90 570 405 675]
247.77	0.2	1539364	1539604	BlankScreen	ANTI	38	2	False	red	40	[1350 1830  405  675]	[ 90 570 405 675]
248.01	1.0	1539604	1540604	ELCue	ANTI	38	2	False	red	40	[1350 1830  405  675]	[ 90 570 405 675]
249.417	6.0	1541011	1547039	ShowFixation	ANTI	39	2	False	red	180	[1035 1515  405  675]	[405 885 405 675]
255.445	0.2	1547039	1547278	BlankScreen	ANTI	39	2	False	red	180	[1035 1515  405  675]	[405 885 405 675]
255.684	1.0	1547278	1548278	ELCue	ANTI	39	2	False	red	180	[1035 1515  405  675]	[405 885 405 675]
257.094	2.0	1548688	1550730	ShowFixation	VGS	40	2	False	lime	40	[ 90 570 405 675]	[1350 1830  405  675]
259.136	0.2	1550730	1550965	BlankScreen	VGS	40	2	False	lime	40	[ 90 570 405 675]	[1350 1830  405  675]
259.371	1.0	1550965	1551965	ELCue	VGS	40	2	False	lime	40	[ 90 570 405 675]	[1350 1830  405  675]
260.757	6.0	1552351	1558383	ShowFixation	VGS	41	2	False	lime	460	[1035 1515  405  675]	[405 885 405 675]
266.789	0.2	1558383	1558622	BlankScreen	VGS	41	2	False	lime	460	[1035 1515  405  675]	[405 885 405 675]
267.028	1.0	1558622	1559622	ELCue	VGS	41	2	False	lime	460	[1035 1515  405  675]	[405 885 405 675]
268.425	6.0	1560019	1566057	ShowFixation	VGS	42	2	False	lime	600	[1350 1830  405  675]	[ 90 570 405 675]
274.463	0.2	1566057	1566297	BlankScreen	VGS	42	2	False	lime	600	[1350 1830  405  675]	[ 90 570 405 675]
274.703	1.0	1566297	1567297	ELCue	VGS	42	2	False	lime	600	[1350 1830  405  675]	[ 90 570 405 675]
276.114	6.0	1567708	1573748	ShowFixation	VGS	43	2	False	lime	180	[405 885 405 675]	[1035 1515  405  675]
282.154	0.2	1573748	1573988	BlankScreen	VGS	43	2	False	lime	180	[405 885 405 675]	[1035 1515  405  675]
282.394	1.0	1573988	1574988	ELCue	VGS	43	2	False	lime	180	[405 885 405 675]	[1035 1515  405  675]
283.805	6.0	1575399	1581439	ShowFixation	VGS	44	2	False	lime	180	[405 885 405 675]	[1035 1515  405  675]
289.845	0.2	1581439	1581679	BlankScreen	VGS	44	2	False	lime	180	[405 885 405 675]	[1035 1515  405  675]
290.085	1.0	1581679	1582679	ELCue	VGS	44	2	False	lime	180	[405 885 405 675]	[1035 1515  405  675]
291.479	6.0	1583073	1589114	ShowFixation	VGS	45	2	False	lime	40	[ 90 570 405 675]	[1350 1830  405  675]
297.52	0.2	1589114	1589353	BlankScreen	VGS	45	2	False	lime	40	[ 90 570 405 675]	[1350 1830  405  675]
297.759	1.0	1589353	1590353	ELCue	VGS	45	2	False	lime	40	[ 90 570 405 675]	[1350 1830  405  675]
299.168	6.0	1590762	1596788	ShowFixation	ANTI	46	2	False	red	180	[1035 1515  405  675]	[405 885 405 675]
305.194	0.2	1596788	1597027	BlankScreen	ANTI	46	2	False	red	180	[1035 1515  405  675]	[405 885 405 675]
305.433	1.0	1597027	1598027	ELCue	ANTI	46	2	False	red	180	[1035 1515  405  675]	[405 885 405 675]
306.846	6.0	1598440	1604479	ShowFixation	ANTI	47	2	False	red	600	[ 90 570 405 675]	[1350 1830  405  675]
312.886	0.2	1604480	1604718	BlankScreen	ANTI	47	2	False	red	600	[ 90 570 405 675]	[1350 1830  405  675]
313.124	1.0	1604718	1605718	ELCue	ANTI	47	2	False	red	600	[ 90 570 405 675]	[1350 1830  405  675]
314.535	2.0	1606129	1608170	ShowFixation	ANTI	48	2	False	red	180	[1035 1515  405  675]	[405 885 405 675]
316.576	0.2	1608170	1608405	BlankScreen	ANTI	48	2	False	red	180	[1035 1515  405  675]	[405 885 405 675]
316.811	1.0	1608405	1609405	ELCue	ANTI	48	2	False	red	180	[1035 1515  405  675]	[405 885 405 675]
336.2	2.0	1627794	1629825	ShowFixation	VGS	49	3	False	lime	600	[1350 1830  405  675]	[ 90 570 405 675]
338.231	0.2	1629825	1630061	BlankScreen	VGS	49	3	False	lime	600	[1350 1830  405  675]	[ 90 570 405 675]
338.467	1.0	1630061	1631061	ELCue	VGS	49	3	False	lime	600	[1350 1830  405  675]	[ 90 570 405 675]
339.872	6.0	1631466	1637496	ShowFixation	VGS	50	3	False	lime	40	[ 90 570 405 675]	[1350 1830  405  675]
345.902	0.2	1637496	1637735	BlankScreen	VGS	50	3	False	lime	40	[ 90 570 405 675]	[1350 1830  405  675]
346.141	1.0	1637735	1638735	ELCue	VGS	50	3	False	lime	40	[ 90 570 405 675]	[1350 1830  405  675]
347.549	6.0	1639143	1645170	ShowFixation	VGS	51	3	False	lime	600	[1350 1830  405  675]	[ 90 570 405 675]
353.576	0.2	1645170	1645409	BlankScreen	VGS	51	3	False	lime	600	[1350 1830  405  675]	[ 90 570 405 675]
353.815	1.0	1645409	1646409	ELCue	VGS	51	3	False	lime	600	[1350 1830  405  675]	[ 90 570 405 675]
355.224	2.0	1646818	1648844	ShowFixation	VGS	52	3	False	lime	40	[ 90 570 405 675]	[1350 1830  405  675]
357.25	0.2	1648844	1649079	BlankScreen	VGS	52	3	False	lime	40	[ 90 570 405 675]	[1350 1830  405  675]
357.485	1.0	1649079	1650079	ELCue	VGS	52	3	False	lime	40	[ 90 570 405 675]	[1350 1830  405  675]
358.892	6.0	1650486	1656514	ShowFixation	VGS	53	3	False	lime	460	[1035 1515  405  675]	[405 885 405 675]
364.92	0.2	1656514	1656754	BlankScreen	VGS	53	3	False	lime	460	[1035 1515  405  675]	[405 885 405 675]
365.16	1.0	1656754	1657754	ELCue	VGS	53	3	False	lime	460	[1035 1515  405  675]	[405 885 405 675]
366.561	2.0	1658155	1660189	ShowFixation	VGS	54	3	False	lime	40	[ 90 570 405 675]	[1350 1830  405  675]
368.595	0.2	1660189	1660424	BlankScreen	VGS	54	3	False	lime	40	[ 90 570 405 675]	[1350 1830  405  675]
368.83	1.0	1660424	1661424	ELCue	VGS	54	3	False	lime	40	[ 90 570 405 675]	[1350 1830  405  675]
370.236	2.0	1661830	1663859	ShowFixation	ANTI	55	3	False	red	40	[1350 1830  405  675]	[ 90 570 405 675]
372.265	0.2	1663859	1664094	BlankScreen	ANTI	55	3	False	red	40	[1350 1830  405  675]	[ 90 570 405 675]
372.5	1.0	1664094	1665094	ELCue	ANTI	55	3	False	red	40	[1350 1830  405  675]	[ 90 570 405 675]
373.875	2.0	1665469	1667496	ShowFixation	ANTI	56	3	False	red	600	[ 90 570 405 675]	[1350 1830  405  675]
375.902	0.2	1667496	1667731	BlankScreen	ANTI	56	3	False	red	600	[ 90 570 405 675]	[1350 1830  405  675]
376.137	1.0	1667731	1668731	ELCue	ANTI	56	3	False	red	600	[ 90 570 405 675]	[1350 1830  405  675]
377.53	6.0	1669124	1675149	ShowFixation	ANTI	57	3	False	red	460	[405 885 405 675]	[1035 1515  405  675]
383.555	0.2	1675149	1675389	BlankScreen	ANTI	57	3	False	red	460	[405 885 405 675]	[1035 1515  405  675]
383.795	1.0	1675389	1676389	ELCue	ANTI	57	3	False	red	460	[405 885 405 675]	[1035 1515  405  675]
385.203	2.0	1676797	1678824	ShowFixation	VGS	58	3	False	lime	180	[405 885 405 675]	[1035 1515  405  675]
387.23	0.2	1678824	1679059	BlankScreen	VGS	58	3	False	lime	180	[405 885 405 675]	[1035 1515  405  675]
387.465	1.0	1679059	1680059	ELCue	VGS	58	3	False	lime	180	[405 885 405 675]	[1035 1515  405  675]
388.87	6.0	1680464	1686494	ShowFixation	ANTI	59	3	False	red	600	[ 90 570 405 675]	[1350 1830  405  675]
394.9	0.2	1686494	1686733	BlankScreen	ANTI	59	3	False	red	600	[ 90 570 405 675]	[1350 1830  405  675]
395.139	1.0	1686733	1687733	ELCue	ANTI	59	3	False	red	600	[ 90 570 405 675]	[1350 1830  405  675]
396.547	2.0	1688141	1690168	ShowFixation	ANTI	60	3	False	red	460	[405 885 405 675]	[1035 1515  405  675]
398.574	0.2	1690168	1690403	BlankScreen	ANTI	60	3	False	red	460	[405 885 405 675]	[1035 1515  405  675]
398.809	1.0	1690403	1691403	ELCue	ANTI	60	3	False	red	460	[405 885 405 675]	[1035 1515  405  675]
400.217	6.0	1691811	1697838	ShowFixation	VGS	61	3	False	lime	460	[1035 1515  405  675]	[405 885 405 675]
406.244	0.2	1697838	1698078	BlankScreen	VGS	61	3	False	lime	460	[1035 1515  405  675]	[405 885 405 675]
406.484	1.0	1698078	1699078	ELCue	VGS	61	3	False	lime	460	[1035 1515  405  675]	[405 885 405 675]
407.891	2.0	1699485	1701513	ShowFixation	VGS	62	3	False	lime	460	[1035 1515  405  675]	[405 885 405 675]
409.919	0.2	1701513	1701748	BlankScreen	VGS	62	3	False	lime	460	[1035 1515  405  675]	[405 885 405 675]
410.154	1.0	1701748	1702748	ELCue	VGS	62	3	False	lime	460	[1035 1515  405  675]	[405 885 405 675]
411.564	6.0	1703158	1709183	ShowFixation	ANTI	63	3	False	red	180	[1035 1515  405  675]	[405 885 405 675]
417.589	0.2	1709183	1709422	BlankScreen	ANTI	63	3	False	red	180	[1035 1515  405  675]	[405 885 405 675]
417.828	1.0	1709422	1710422	ELCue	ANTI	63	3	False	red	180	[1035 1515  405  675]	[405 885 405 675]
419.236	6.0	1710830	1716857	ShowFixation	VGS	64	3	False	lime	600	[1350 1830  405  675]	[ 90 570 405 675]
425.263	0.2	1716857	1717096	BlankScreen	VGS	64	3	False	lime	600	[1350 1830  405  675]	[ 90 570 405 675]
425.502	1.0	1717096	1718096	ELCue	VGS	64	3	False	lime	600	[1350 1830  405  675]	[ 90 570 405 675]
426.911	2.0	1718505	1720531	ShowFixation	VGS	65	3	False	lime	460	[1035 1515  405  675]	[405 885 405 675]
428.937	0.2	1720531	1720768	BlankScreen	VGS	65	3	False	lime	460	[1035 1515  405  675]	[405 885 405 675]
429.174	1.0	1720768	1721768	ELCue	VGS	65	3	False	lime	460	[1035 1515  405  675]	[405 885 405 675]
430.584	6.0	1722178	1728218	ShowFixation	ANTI	66	3	False	red	40	[1350 1830  405  675]	[ 90 570 405 675]
436.624	0.2	1728218	1728458	BlankScreen	ANTI	66	3	False	red	40	[1350 1830  405  675]	[ 90 570 405 675]
436.864	1.0	1728458	1729458	ELCue	ANTI	66	3	False	red	40	[1350 1830  405  675]	[ 90 570 405 675]
438.265	2.0	1729859	1731894	ShowFixation	VGS	67	3	False	lime	180	[405 885 405 675]	[1035 1515  405  675]
440.3	0.2	1731894	1732129	BlankScreen	VGS	67	3	False	lime	180	[405 885 405 675]	[1035 1515  405  675]
440.535	1.0	1732129	1733129	ELCue	VGS	67	3	False	lime	180	[405 885 405 675]	[1035 1515  405  675]
441.997	6.0	1733591	1739631	ShowFixation	VGS	68	3	False	lime	40	[ 90 570 405 675]	[1350 1830  405  675]
448.037	0.2	1739631	1739870	BlankScreen	VGS	68	3	False	lime	40	[ 90 570 405 675]	[1350 1830  405  675]
448.276	1.0	1739870	1740870	ELCue	VGS	68	3	False	lime	40	[ 90 570 405 675]	[1350 1830  405  675]
449.678	2.0	1741272	1743305	ShowFixation	ANTI	69	3	False	red	180	[1035 1515  405  675]	[405 885 405 675]
451.711	0.2	1743305	1743540	BlankScreen	ANTI	69	3	False	red	180	[1035 1515  405  675]	[405 885 405 675]
451.946	1.0	1743540	1744540	ELCue	ANTI	69	3	False	red	180	[1035 1515  405  675]	[405 885 405 675]
453.354	6.0	1744948	1750975	ShowFixation	ANTI	70	3	False	red	600	[ 90 570 405 675]	[1350 1830  405  675]
459.381	0.2	1750975	1751214	BlankScreen	ANTI	70	3	False	red	600	[ 90 570 405 675]	[1350 1830  405  675]
459.62	1.0	1751214	1752214	ELCue	ANTI	70	3	False	red	600	[ 90 570 405 675]	[1350 1830  405  675]
461.025	2.0	1752619	1754649	ShowFixation	ANTI	71	3	False	red	40	[1350 1830  405  675]	[ 90 570 405 675]
463.055	0.2	1754649	1754885	BlankScreen	ANTI	71	3	False	red	40	[1350 1830  405  675]	[ 90 570 405 675]
463.291	1.0	1754885	1755885	ELCue	ANTI	71	3	False	red	40	[1350 1830  405  675]	[ 90 570 405 675]
464.697	2.0	1756291	1758320	ShowFixation	ANTI	72	3	False	red	460	[405 885 405 675]	[1035 1515  405  675]
466.726	0.2	1758320	1758555	BlankScreen	ANTI	72	3	False	red	460	[405 885 405 675]	[1035 1515  405  675]
466.961	1.0	1758555	1759555	ELCue	ANTI	72	3	False	red	460	[405 885 405 675]	[1035 1515  405  675]
468.364	6.0	1759958	1765990	ShowFixation	VGS	73	3	False	lime	180	[405 885 405 675]	[1035 1515  405  675]
474.396	0.2	1765990	1766229	BlankScreen	VGS	73	3	False	lime	180	[405 885 405 675]	[1035 1515  405  675]
474.635	1.0	1766229	1767229	ELCue	VGS	73	3	False	lime	180	[405 885 405 675]	[1035 1515  405  675]
476.041	6.0	1767635	1773664	ShowFixation	ANTI	74	3	False	red	180	[1035 1515  405  675]	[405 885 405 675]
482.07	0.2	1773664	1773903	BlankScreen	ANTI	74	3	False	red	180	[1035 1515  405  675]	[405 885 405 675]
482.309	1.0	1773903	1774903	ELCue	ANTI	74	3	False	red	180	[1035 1515  405  675]	[405 885 405 675]
483.703	2.0	1775297	1777322	ShowFixation	VGS	75	3	False	lime	600	[1350 1830  405  675]	[ 90 570 405 675]
485.728	0.2	1777322	1777557	BlankScreen	VGS	75	3	False	lime	600	[1350 1830  405  675]	[ 90 570 405 675]
485.963	1.0	1777557	1778557	ELCue	VGS	75	3	False	lime	600	[1350 1830  405  675]	[ 90 570 405 675]
487.373	2.0	1778967	1780992	ShowFixation	ANTI	76	3	False	red	600	[ 90 570 405 675]	[1350 1830  405  675]
489.398	0.2	1780992	1781227	BlankScreen	ANTI	76	3	False	red	600	[ 90 570 405 675]	[1350 1830  405  675]
489.633	1.0	1781227	1782227	ELCue	ANTI	76	3	False	red	600	[ 90 570 405 675]	[1350 1830  405  675]
491.042	6.0	1782636	1788662	ShowFixation	ANTI	77	3	False	red	40	[1350 1830  405  675]	[ 90 570 405 675]
497.068	0.2	1788662	1788902	BlankScreen	ANTI	77	3	False	red	40	[1350 1830  405  675]	[ 90 570 405 675]
497.308	1.0	1788902	1789902	ELCue	ANTI	77	3	False	red	40	[1350 1830  405  675]	[ 90 570 405 675]
498.712	6.0	1790306	1796337	ShowFixation	VGS	78	3	False	lime	180	[405 885 405 675]	[1035 1515  405  675]
504.743	0.2	1796337	1796576	BlankScreen	VGS	78	3	False	lime	180	[405 885 405 675]	[1035 1515  405  675]
504.982	1.0	1796576	1797576	ELCue	VGS	78	3	False	lime	180	[405 885 405 675]	[1035 1515  405  675]
506.39	6.0	1797984	1804011	ShowFixation	ANTI	79	3	False	red	460	[405 885 405 675]	[1035 1515  405  675]
512.417	0.2	1804011	1804250	BlankScreen	ANTI	79	3	False	red	460	[405 885 405 675]	[1035 1515  405  675]
512.656	1.0	1804250	1805250	ELCue	ANTI	79	3	False	red	460	[405 885 405 675]	[1035 1515  405  675]
514.065	2.0	1805659	1807685	ShowFixation	ANTI	80	3	False	red	180	[1035 1515  405  675]	[405 885 405 675]
516.091	0.2	1807685	1807920	BlankScreen	ANTI	80	3	False	red	180	[1035 1515  405  675]	[405 885 405 675]
516.326	1.0	1807920	1808920	ELCue	ANTI	80	3	False	red	180	[1035 1515  405  675]	[405 885 405 675]
528.451	2.0	1820045	1822083	ShowFixation	ANTI	81	4	False	red	460	[405 885 405 675]	[1035 1515  405  675]
530.489	0.2	1822083	1822318	BlankScreen	ANTI	81	4	False	red	460	[405 885 405 675]	[1035 1515  405  675]
530.724	1.0	1822318	1823318	ELCue	ANTI	81	4	False	red	460	[405 885 405 675]	[1035 1515  405  675]
532.131	6.0	1823725	1829753	ShowFixation	VGS	82	4	False	lime	180	[405 885 405 675]	[1035 1515  405  675]
538.159	0.2	1829753	1829992	BlankScreen	VGS	82	4	False	lime	180	[405 885 405 675]	[1035 1515  405  675]
538.399	1.0	1829993	1830993	ELCue	VGS	82	4	False	lime	180	[405 885 405 675]	[1035 1515  405  675]
539.802	2.0	1831396	1833427	ShowFixation	ANTI	83	4	False	red	600	[ 90 570 405 675]	[1350 1830  405  675]
541.834	0.2	1833428	1833662	BlankScreen	ANTI	83	4	False	red	600	[ 90 570 405 675]	[1350 1830  405  675]
542.069	1.0	1833663	1834663	ELCue	ANTI	83	4	False	red	600	[ 90 570 405 675]	[1350 1830  405  675]
543.478	2.0	1835072	1837097	ShowFixation	VGS	84	4	False	lime	40	[ 90 570 405 675]	[1350 1830  405  675]
545.504	0.2	1837098	1837333	BlankScreen	VGS	84	4	False	lime	40	[ 90 570 405 675]	[1350 1830  405  675]
545.74	1.0	1837334	1838334	ELCue	VGS	84	4	False	lime	40	[ 90 570 405 675]	[1350 1830  405  675]
547.148	6.0	1838742	1844769	ShowFixation	ANTI	85	4	False	red	40	[1350 1830  405  675]	[ 90 570 405 675]
553.175	0.2	1844769	1845008	BlankScreen	ANTI	85	4	False	red	40	[1350 1830  405  675]	[ 90 570 405 675]
553.414	1.0	1845008	1846008	ELCue	ANTI	85	4	False	red	40	[1350 1830  405  675]	[ 90 570 405 675]
554.822	2.0	1846416	1848443	ShowFixation	VGS	86	4	False	lime	180	[405 885 405 675]	[1035 1515  405  675]
556.849	0.2	1848443	1848678	BlankScreen	VGS	86	4	False	lime	180	[405 885 405 675]	[1035 1515  405  675]
557.084	1.0	1848678	1849678	ELCue	VGS	86	4	False	lime	180	[405 885 405 675]	[1035 1515  405  675]
558.494	6.0	1850088	1856113	ShowFixation	ANTI	87	4	False	red	460	[405 885 405 675]	[1035 1515  405  675]
564.519	0.2	1856113	1856352	BlankScreen	ANTI	87	4	False	red	460	[405 885 405 675]	[1035 1515  405  675]
564.758	1.0	1856352	1857352	ELCue	ANTI	87	4	False	red	460	[405 885 405 675]	[1035 1515  405  675]
566.149	6.0	1857743	1863771	ShowFixation	ANTI	88	4	False	red	180	[1035 1515  405  675]	[405 885 405 675]
572.177	0.2	1863771	1864010	BlankScreen	ANTI	88	4	False	red	180	[1035 1515  405  675]	[405 885 405 675]
572.416	1.0	1864010	1865010	ELCue	ANTI	88	4	False	red	180	[1035 1515  405  675]	[405 885 405 675]
573.823	2.0	1865417	1867445	ShowFixation	ANTI	89	4	False	red	40	[1350 1830  405  675]	[ 90 570 405 675]
575.851	0.2	1867445	1867680	BlankScreen	ANTI	89	4	False	red	40	[1350 1830  405  675]	[ 90 570 405 675]
576.086	1.0	1867680	1868680	ELCue	ANTI	89	4	False	red	40	[1350 1830  405  675]	[ 90 570 405 675]
577.494	6.0	1869088	1875115	ShowFixation	VGS	90	4	False	lime	460	[1035 1515  405  675]	[405 885 405 675]
583.521	0.2	1875115	1875355	BlankScreen	VGS	90	4	False	lime	460	[1035 1515  405  675]	[405 885 405 675]
583.761	1.0	1875355	1876355	ELCue	VGS	90	4	False	lime	460	[1035 1515  405  675]	[405 885 405 675]
585.17	6.0	1876764	1882789	ShowFixation	VGS	91	4	False	lime	180	[405 885 405 675]	[1035 1515  405  675]
591.195	0.2	1882789	1883029	BlankScreen	VGS	91	4	False	lime	180	[405 885 405 675]	[1035 1515  405  675]
591.435	1.0	1883029	1884029	ELCue	VGS	91	4	False	lime	180	[405 885 405 675]	[1035 1515  405  675]
592.846	2.0	1884440	1886480	ShowFixation	ANTI	92	4	False	red	40	[1350 1830  405  675]	[ 90 570 405 675]
594.886	0.2	1886480	1886716	BlankScreen	ANTI	92	4	False	red	40	[1350 1830  405  675]	[ 90 570 405 675]
595.122	1.0	1886716	1887716	ELCue	ANTI	92	4	False	red	40	[1350 1830  405  675]	[ 90 570 405 675]
596.53	2.0	1888124	1890151	ShowFixation	ANTI	93	4	False	red	600	[ 90 570 405 675]	[1350 1830  405  675]
598.557	0.2	1890151	1890386	BlankScreen	ANTI	93	4	False	red	600	[ 90 570 405 675]	[1350 1830  405  675]
598.792	1.0	1890386	1891386	ELCue	ANTI	93	4	False	red	600	[ 90 570 405 675]	[1350 1830  405  675]
600.165	2.0	1891759	1893788	ShowFixation	VGS	94	4	False	lime	460	[1035 1515  405  675]	[405 885 405 675]
602.194	0.2	1893788	1894023	BlankScreen	VGS	94	4	False	lime	460	[1035 1515  405  675]	[405 885 405 675]
602.429	1.0	1894023	1895023	ELCue	VGS	94	4	False	lime	460	[1035 1515  405  675]	[405 885 405 675]
603.834	6.0	1895428	1901458	ShowFixation	ANTI	95	4	False	red	180	[1035 1515  405  675]	[405 885 405 675]
609.864	0.2	1901458	1901697	BlankScreen	ANTI	95	4	False	red	180	[1035 1515  405  675]	[405 885 405 675]
610.103	1.0	1901697	1902697	ELCue	ANTI	95	4	False	red	180	[1035 1515  405  675]	[405 885 405 675]
611.513	2.0	1903107	1905132	ShowFixation	ANTI	96	4	False	red	460	[405 885 405 675]	[1035 1515  405  675]
613.538	0.2	1905132	1905367	BlankScreen	ANTI	96	4	False	red	460	[405 885 405 675]	[1035 1515  405  675]
613.773	1.0	1905367	1906367	ELCue	ANTI	96	4	False	red	460	[405 885 405 675]	[1035 1515  405  675]
615.183	2.0	1906777	1908802	ShowFixation	VGS	97	4	False	lime	180	[405 885 405 675]	[1035 1515  405  675]
617.208	0.2	1908802	1909038	BlankScreen	VGS	97	4	False	lime	180	[405 885 405 675]	[1035 1515  405  675]
617.444	1.0	1909038	1910038	ELCue	VGS	97	4	False	lime	180	[405 885 405 675]	[1035 1515  405  675]
618.849	6.0	1910443	1916473	ShowFixation	ANTI	98	4	False	red	600	[ 90 570 405 675]	[1350 1830  405  675]
624.879	0.2	1916473	1916712	BlankScreen	ANTI	98	4	False	red	600	[ 90 570 405 675]	[1350 1830  405  675]
625.118	1.0	1916712	1917712	ELCue	ANTI	98	4	False	red	600	[ 90 570 405 675]	[1350 1830  405  675]
626.528	2.0	1918122	1920147	ShowFixation	VGS	99	4	False	lime	460	[1035 1515  405  675]	[405 885 405 675]
628.553	0.2	1920147	1920382	BlankScreen	VGS	99	4	False	lime	460	[1035 1515  405  675]	[405 885 405 675]
628.788	1.0	1920382	1921382	ELCue	VGS	99	4	False	lime	460	[1035 1515  405  675]	[405 885 405 675]
630.197	2.0	1921791	1923817	ShowFixation	VGS	100	4	False	lime	600	[1350 1830  405  675]	[ 90 570 405 675]
632.223	0.2	1923817	1924053	BlankScreen	VGS	100	4	False	lime	600	[1350 1830  405  675]	[ 90 570 405 675]
632.459	1.0	1924053	1925053	ELCue	VGS	100	4	False	lime	600	[1350 1830  405  675]	[ 90 570 405 675]
633.866	2.0	1925460	1927488	ShowFixation	ANTI	101	4	False	red	180	[1035 1515  405  675]	[405 885 405 675]
635.894	0.2	1927488	1927723	BlankScreen	ANTI	101	4	False	red	180	[1035 1515  405  675]	[405 885 405 675]
636.129	1.0	1927723	1928723	ELCue	ANTI	101	4	False	red	180	[1035 1515  405  675]	[405 885 405 675]
637.537	2.0	1929131	1931158	ShowFixation	ANTI	102	4	False	red	180	[1035 1515  405  675]	[405 885 405 675]
639.564	0.2	1931158	1931393	BlankScreen	ANTI	102	4	False	red	180	[1035 1515  405  675]	[405 885 405 675]
639.799	1.0	1931393	1932393	ELCue	ANTI	102	4	False	red	180	[1035 1515  405  675]	[405 885 405 675]
641.209	6.0	1932803	1938829	ShowFixation	VGS	103	4	False	lime	600	[1350 1830  405  675]	[ 90 570 405 675]
647.235	0.2	1938829	1939067	BlankScreen	VGS	103	4	False	lime	600	[1350 1830  405  675]	[ 90 570 405 675]
647.474	1.0	1939068	1940068	ELCue	VGS	103	4	False	lime	600	[1350 1830  405  675]	[ 90 570 405 675]
648.883	2.0	1940477	1942503	ShowFixation	VGS	104	4	False	lime	40	[ 90 570 405 675]	[1350 1830  405  675]
650.909	0.2	1942503	1942739	BlankScreen	VGS	104	4	False	lime	40	[ 90 570 405 675]	[1350 1830  405  675]
651.145	1.0	1942739	1943739	ELCue	VGS	104	4	False	lime	40	[ 90 570 405 675]	[1350 1830  405  675]
652.55	6.0	1944144	1950174	ShowFixation	VGS	105	4	False	lime	600	[1350 1830  405  675]	[ 90 570 405 675]
658.58	0.2	1950174	1950413	BlankScreen	VGS	105	4	False	lime	600	[1350 1830  405  675]	[ 90 570 405 675]
658.819	1.0	1950413	1951413	ELCue	VGS	105	4	False	lime	600	[1350 1830  405  675]	[ 90 570 405 675]
660.225	2.0	1951819	1953848	ShowFixation	VGS	106	4	False	lime	600	[1350 1830  405  675]	[ 90 570 405 675]
662.254	0.2	1953848	1954083	BlankScreen	VGS	106	4	False	lime	600	[1350 1830  405  675]	[ 90 570 405 675]
662.489	1.0	1954083	1955083	ELCue	VGS	106	4	False	lime	600	[1350 1830  405  675]	[ 90 570 405 675]
663.901	6.0	1955495	1961535	ShowFixation	VGS	107	4	False	lime	40	[ 90 570 405 675]	[1350 1830  405  675]
669.941	0.2	1961535	1961774	BlankScreen	VGS	107	4	False	lime	40	[ 90 570 405 675]	[1350 1830  405  675]
670.18	1.0	1961774	1962774	ELCue	VGS	107	4	False	lime	40	[ 90 570 405 675]	[1350 1830  405  675]
671.589	6.0	1963183	1969209	ShowFixation	ANTI	108	4	False	red	40	[1350 1830  405  675]	[ 90 570 405 675]
677.615	0.2	1969209	1969448	BlankScreen	ANTI	108	4	False	red	40	[1350 1830  405  675]	[ 90 570 405 675]
677.854	1.0	1969448	1970448	ELCue	ANTI	108	4	False	red	40	[1350 1830  405  675]	[ 90 570 405 675]
679.26	6.0	1970854	1976883	ShowFixation	ANTI	109	4	False	red	460	[405 885 405 675]	[1035 1515  405  675]
685.289	0.2	1976883	1977123	BlankScreen	ANTI	109	4	False	red	460	[405 885 405 675]	[1035 1515  405  675]
685.529	1.0	1977123	1978123	ELCue	ANTI	109	4	False	red	460	[405 885 405 675]	[1035 1515  405  675]
686.917	6.0	1978511	1984541	ShowFixation	VGS	110	4	False	lime	40	[ 90 570 405 675]	[1350 1830  405  675]
692.947	0.2	1984541	1984780	BlankScreen	VGS	110	4	False	lime	40	[ 90 570 405 675]	[1350 1830  405  675]
693.186	1.0	1984780	1985780	ELCue	VGS	110	4	False	lime	40	[ 90 570 405 675]	[1350 1830  405  675]
694.598	6.0	1986192	1992232	ShowFixation	ANTI	111	4	False	red	600	[ 90 570 405 675]	[1350 1830  405  675]
700.638	0.2	1992232	1992471	BlankScreen	ANTI	111	4	False	red	600	[ 90 570 405 675]	[1350 1830  405  675]
700.877	1.0	1992471	1993471	ELCue	ANTI	111	4	False	red	600	[ 90 570 405 675]	[1350 1830  405  675]
702.287	6.0	1993881	1999906	ShowFixation	VGS	112	4	False	lime	460	[1035 1515  405  675]	[405 885 405 675]
708.312	0.2	1999906	2000145	BlankScreen	VGS	112	4	False	lime	460	[1035 1515  405  675]	[405 885 405 675]
708.551	1.0	2000145	2001145	ELCue	VGS	112	4	False	lime	460	[1035 1515  405  675]	[405 885 405 675]
