participant_id	condition	accuracy	reaction_time
sub-24433	congruent	1	0.414
sub-24433	congruent	1	0.384
sub-24433	congruent	1	0.356
sub-24433	congruent	1	0.398
sub-24433	incongruent	1	0.562
sub-24433	congruent	1	0.394
sub-24433	congruent	1	0.466
sub-24433	congruent	1	0.388
sub-24433	incongruent	1	0.504
sub-24433	congruent	1	0.378
sub-24433	congruent	1	0.342
sub-24433	incongruent	1	0.497
sub-24433	incongruent	1	0.509
sub-24433	incongruent	1	0.539
sub-24433	congruent	1	0.430
sub-24433	incongruent	1	0.472
sub-24433	congruent	1	0.397
sub-24433	incongruent	1	1.710
sub-24433	incongruent	1	0.539
sub-24433	congruent	1	0.353
sub-24433	incongruent	1	0.460
sub-24433	incongruent	1	0.503
sub-24433	incongruent	1	0.468
sub-24433	incongruent	1	0.541
sub-24433	incongruent	0	0.508
sub-24433	incongruent	1	0.472
sub-24433	congruent	1	0.362
sub-24433	incongruent	0	0.302
sub-24433	congruent	1	0.404
sub-24433	congruent	1	0.425
sub-24433	congruent	1	0.368
sub-24433	incongruent	1	0.471
sub-24433	congruent	1	0.367
sub-24433	congruent	1	0.342
sub-24433	incongruent	1	0.500
sub-24433	congruent	1	0.388
sub-24433	congruent	1	0.420
sub-24433	incongruent	1	0.469
sub-24433	incongruent	1	0.688
sub-24433	incongruent	1	0.476
sub-24433	congruent	1	0.451
sub-24433	incongruent	1	0.516
sub-24433	congruent	1	0.427
sub-24433	congruent	1	0.409
sub-24433	incongruent	1	0.502
sub-24433	incongruent	1	0.495
sub-24433	incongruent	1	0.604
sub-24433	incongruent	1	0.561
sub-24433	incongruent	1	0.592
sub-24433	congruent	1	0.475
sub-24433	congruent	1	0.436
sub-24433	congruent	1	0.464
sub-24433	incongruent	1	0.482
sub-24433	congruent	1	0.397
sub-24433	incongruent	1	0.880
sub-24433	incongruent	1	0.715
sub-24433	congruent	1	0.448
sub-24433	congruent	1	0.399
sub-24433	congruent	1	0.452
sub-24433	incongruent	1	0.443
sub-24433	congruent	1	0.324
sub-24433	congruent	1	0.377
sub-24433	incongruent	0	0.352
sub-24433	congruent	0	0.217
sub-24433	incongruent	1	0.703
sub-24433	incongruent	0	0.251
sub-24433	congruent	1	0.272
sub-24433	incongruent	1	0.589
sub-24433	incongruent	0	0.442
sub-24433	congruent	1	0.300
sub-24433	congruent	1	0.303
sub-24433	incongruent	0	0.186
sub-24433	congruent	1	0.259
sub-24433	congruent	1	0.294
sub-24433	congruent	1	0.263
sub-24433	congruent	1	0.276
sub-24433	incongruent	0	0.260
sub-24433	congruent	1	0.412
sub-24433	incongruent	0	0.129
sub-24433	congruent	1	0.242
sub-24433	congruent	1	0.141
sub-24433	incongruent	0	0.287
sub-24433	congruent	1	0.387
sub-24433	congruent	1	0.469
sub-24433	congruent	1	0.232
sub-24433	incongruent	1	0.611
sub-24433	incongruent	1	0.572
sub-24433	incongruent	0	0.214
sub-24433	congruent	1	0.321
sub-24433	incongruent	1	0.551
sub-24433	incongruent	1	0.514
sub-24433	incongruent	1	0.544
sub-24433	incongruent	0	0.269
sub-24433	incongruent	1	0.559
sub-24433	congruent	1	0.322
sub-24433	incongruent	1	0.521
sub-24433	incongruent	1	0.235
sub-24433	congruent	1	0.280
sub-24433	incongruent	1	0.369
sub-24433	incongruent	1	0.210
sub-24433	incongruent	0	0.223
sub-24433	congruent	1	0.388
sub-24433	congruent	1	0.389
sub-24433	incongruent	0	0.219
sub-24433	congruent	1	0.402
sub-24433	congruent	1	0.339
sub-24433	incongruent	0	0.348
sub-24433	congruent	1	0.468
sub-24433	incongruent	1	0.515
sub-24433	congruent	1	0.306
sub-24433	congruent	1	0.277
sub-24433	incongruent	1	0.375
sub-24433	incongruent	0	0.243
sub-24433	incongruent	1	0.489
sub-24433	congruent	1	0.342
sub-24433	congruent	0	0.253
sub-24433	congruent	1	0.370
sub-24433	incongruent	1	0.594
sub-24433	congruent	1	0.371
sub-24433	incongruent	1	0.440
sub-24433	congruent	1	0.376
sub-24433	incongruent	0	0.265
sub-24433	incongruent	0	0.346
sub-24433	incongruent	0	0.016
sub-24433	incongruent	1	0.335
sub-24433	congruent	1	0.116
sub-24433	congruent	0	0.020
sub-24433	congruent	1	0.052
sub-24433	incongruent	1	0.033
sub-24433	congruent	1	0.056
sub-24433	incongruent	0	0.002
sub-24433	congruent	1	0.145
sub-24433	congruent	0	0.121
sub-24433	congruent	0	0.362
sub-24433	congruent	0	0.197
sub-24433	congruent	1	0.224
sub-24433	incongruent	0	0.156
sub-24433	incongruent	1	0.518
sub-24433	congruent	1	0.323
sub-24433	incongruent	0	0.361
sub-24433	congruent	1	0.360
sub-24433	incongruent	1	0.265
sub-24433	incongruent	0	0.376
sub-24433	congruent	1	0.377
sub-24433	congruent	1	0.609
sub-24433	congruent	1	0.398
sub-24433	incongruent	0	0.226
sub-24433	congruent	1	0.267
sub-24433	incongruent	0	0.354
sub-24433	congruent	1	0.404
sub-24433	incongruent	0	0.459
sub-24433	incongruent	1	0.504
sub-24433	congruent	1	0.372
sub-24433	incongruent	1	0.543
sub-24433	congruent	1	0.423
sub-24433	congruent	1	0.401
sub-24433	incongruent	1	0.400
sub-24433	congruent	1	0.364
sub-24433	incongruent	1	0.535
sub-24433	incongruent	1	0.446
sub-24433	incongruent	0	0.441
sub-24433	incongruent	1	0.453
sub-24433	incongruent	0	0.325
sub-24433	congruent	1	0.319
sub-24433	incongruent	0	0.317
sub-24433	incongruent	1	0.576
sub-24433	congruent	1	0.475
sub-24433	incongruent	0	0.295
sub-24433	congruent	1	0.432
sub-24433	incongruent	1	0.438
sub-24433	incongruent	1	0.509
sub-24433	congruent	1	0.316
sub-24433	congruent	1	0.393
sub-24433	congruent	1	0.353
sub-24433	congruent	1	0.306
sub-24433	congruent	1	0.340
sub-24433	incongruent	1	0.453
sub-24433	congruent	1	0.349
sub-24433	incongruent	1	0.494
sub-24433	incongruent	1	0.643
sub-24433	congruent	1	0.335
sub-24433	congruent	1	0.243
sub-24433	congruent	0	0.180
sub-24433	congruent	1	0.544
sub-24433	congruent	1	0.309
sub-24433	incongruent	1	0.218
sub-24433	incongruent	1	0.561
sub-24433	incongruent	1	0.428
sub-24433	congruent	1	0.253
sub-24433	incongruent	1	0.460
sub-24433	incongruent	1	0.484
sub-24433	congruent	1	0.354
sub-24433	congruent	1	0.432
sub-24433	congruent	1	0.439
sub-24433	congruent	1	0.363
sub-24433	congruent	1	0.321
sub-24433	incongruent	0	0.332
sub-24433	congruent	1	0.506
sub-24433	congruent	1	0.373
sub-24433	congruent	1	0.388
sub-24433	incongruent	0	0.314
sub-24433	incongruent	1	0.378
sub-24433	congruent	1	0.281
sub-24433	congruent	1	0.451
sub-24433	incongruent	0	0.339
sub-24433	incongruent	0	0.325
sub-24433	incongruent	1	0.491
sub-24433	congruent	1	0.375
sub-24433	congruent	1	0.301
sub-24433	congruent	1	0.311
sub-24433	incongruent	0	0.261
sub-24433	incongruent	1	0.594
sub-24433	incongruent	0	0.329
sub-24433	incongruent	1	0.579
sub-24433	incongruent	1	0.797
sub-24433	congruent	1	0.375
sub-24433	incongruent	1	0.500
sub-24433	incongruent	1	0.429
sub-24433	congruent	1	0.361
sub-24433	incongruent	0	0.352
sub-24433	incongruent	1	0.619
sub-24433	incongruent	1	0.583
sub-24433	incongruent	1	0.799
sub-24433	congruent	1	0.479
sub-24433	incongruent	1	0.764
sub-24433	incongruent	1	0.473
sub-24433	incongruent	1	0.500
sub-24433	congruent	1	0.334
sub-24433	congruent	1	0.395
sub-24433	congruent	1	0.269
sub-24433	congruent	1	0.271
sub-24433	incongruent	0	0.271
sub-24433	congruent	1	0.387
sub-24433	incongruent	0	0.369
sub-24433	congruent	1	0.438
sub-24433	incongruent	1	0.403
sub-24433	incongruent	0	0.043
sub-24433	congruent	1	0.354
sub-24433	incongruent	1	0.466
sub-24433	congruent	1	0.362
