participant_id	condition	accuracy	reaction_time
sub-23979	incongruent	1	0.682
sub-23979	congruent	1	0.348
sub-23979	incongruent	0	0.333
sub-23979	congruent	1	0.426
sub-23979	congruent	1	0.367
sub-23979	incongruent	1	0.406
sub-23979	congruent	1	0.317
sub-23979	incongruent	0	0.340
sub-23979	incongruent	1	0.422
sub-23979	incongruent	1	0.464
sub-23979	incongruent	1	0.407
sub-23979	congruent	1	0.418
sub-23979	incongruent	0	0.283
sub-23979	congruent	1	0.318
sub-23979	incongruent	1	0.484
sub-23979	congruent	1	0.349
sub-23979	incongruent	0	0.234
sub-23979	congruent	1	0.295
sub-23979	congruent	1	0.280
sub-23979	congruent	1	0.246
sub-23979	incongruent	1	0.222
sub-23979	congruent	1	0.256
sub-23979	incongruent	0	0.278
sub-23979	incongruent	0	0.318
sub-23979	incongruent	1	0.487
sub-23979	congruent	1	0.366
sub-23979	incongruent	1	0.412
sub-23979	incongruent	1	0.419
sub-23979	congruent	1	0.382
sub-23979	incongruent	1	0.406
sub-23979	incongruent	0	0.386
sub-23979	incongruent	1	0.452
sub-23979	incongruent	1	0.440
sub-23979	congruent	1	0.381
sub-23979	congruent	1	0.362
sub-23979	congruent	1	0.388
sub-23979	congruent	1	0.351
sub-23979	congruent	1	0.315
sub-23979	incongruent	1	0.411
sub-23979	incongruent	1	0.385
sub-23979	incongruent	1	0.415
sub-23979	congruent	1	0.301
sub-23979	incongruent	1	0.428
sub-23979	congruent	1	0.241
sub-23979	congruent	1	0.178
sub-23979	congruent	0	0.000
sub-23979	incongruent	0	0.249
sub-23979	congruent	1	0.292
sub-23979	congruent	1	0.323
sub-23979	incongruent	0	0.228
sub-23979	congruent	1	0.331
sub-23979	congruent	1	0.349
sub-23979	incongruent	1	0.501
sub-23979	congruent	1	0.358
sub-23979	incongruent	1	0.264
sub-23979	congruent	1	0.303
sub-23979	incongruent	0	0.265
sub-23979	congruent	0	0.319
sub-23979	congruent	1	0.349
sub-23979	incongruent	0	0.313
sub-23979	incongruent	0	0.540
sub-23979	congruent	1	0.304
sub-23979	congruent	0	0.193
sub-23979	incongruent	0	0.294
sub-23979	congruent	1	0.297
sub-23979	incongruent	1	0.428
sub-23979	incongruent	1	1.122
sub-23979	congruent	1	0.248
sub-23979	incongruent	0	0.296
sub-23979	incongruent	0	0.269
sub-23979	incongruent	0	0.311
sub-23979	incongruent	0	0.321
sub-23979	congruent	1	0.354
sub-23979	incongruent	1	0.442
sub-23979	incongruent	0	0.362
sub-23979	congruent	1	0.332
sub-23979	congruent	1	0.278
sub-23979	incongruent	0	0.427
sub-23979	incongruent	0	0.427
sub-23979	incongruent	0	0.395
sub-23979	incongruent	1	0.500
sub-23979	congruent	1	0.392
sub-23979	congruent	1	0.379
sub-23979	congruent	1	0.326
sub-23979	incongruent	0	0.303
sub-23979	congruent	0	0.350
sub-23979	incongruent	0	0.347
sub-23979	congruent	1	0.271
sub-23979	congruent	1	0.342
sub-23979	incongruent	0	0.295
sub-23979	congruent	1	0.327
sub-23979	congruent	1	0.290
sub-23979	congruent	1	0.337
sub-23979	incongruent	0	0.261
sub-23979	incongruent	0	0.272
sub-23979	congruent	1	0.305
sub-23979	congruent	1	0.238
sub-23979	incongruent	1	0.237
sub-23979	incongruent	0	0.274
sub-23979	congruent	1	0.304
sub-23979	incongruent	1	0.249
sub-23979	incongruent	1	0.277
sub-23979	congruent	1	0.237
sub-23979	incongruent	0	0.395
sub-23979	incongruent	1	0.230
sub-23979	congruent	1	0.306
sub-23979	incongruent	1	0.276
sub-23979	congruent	1	0.352
sub-23979	congruent	0	0.270
sub-23979	congruent	1	0.289
sub-23979	congruent	1	0.140
sub-23979	congruent	0	0.227
sub-23979	congruent	1	0.044
sub-23979	congruent	1	0.282
sub-23979	incongruent	1	0.197
sub-23979	incongruent	0	0.260
sub-23979	congruent	0	0.000
sub-23979	incongruent	1	0.023
sub-23979	incongruent	0	0.348
sub-23979	congruent	1	0.240
sub-23979	incongruent	0	0.533
sub-23979	incongruent	1	0.193
sub-23979	incongruent	0	0.341
sub-23979	incongruent	0	0.338
sub-23979	incongruent	0	0.366
sub-23979	incongruent	0	0.286
sub-23979	incongruent	0	0.328
sub-23979	incongruent	1	0.260
sub-23979	incongruent	1	0.436
sub-23979	incongruent	0	0.405
sub-23979	congruent	1	0.394
sub-23979	incongruent	1	0.498
sub-23979	congruent	1	0.316
sub-23979	congruent	1	0.643
sub-23979	incongruent	0	0.319
sub-23979	incongruent	0	0.209
sub-23979	incongruent	0	0.155
sub-23979	congruent	1	0.451
sub-23979	congruent	1	0.014
sub-23979	congruent	0	0.156
sub-23979	congruent	1	0.196
sub-23979	incongruent	1	0.198
sub-23979	congruent	0	0.142
sub-23979	congruent	0	0.220
sub-23979	congruent	1	0.221
sub-23979	incongruent	1	0.180
sub-23979	congruent	1	0.230
sub-23979	congruent	1	0.106
sub-23979	incongruent	1	0.063
sub-23979	incongruent	0	0.183
sub-23979	incongruent	0	0.209
sub-23979	congruent	1	0.469
sub-23979	incongruent	1	0.269
sub-23979	incongruent	0	0.392
sub-23979	congruent	0	0.214
sub-23979	congruent	1	0.238
sub-23979	incongruent	0	0.300
sub-23979	congruent	1	0.320
sub-23979	incongruent	0	0.244
sub-23979	congruent	1	0.236
sub-23979	incongruent	0	0.156
sub-23979	congruent	0	0.048
sub-23979	congruent	1	0.275
sub-23979	congruent	1	0.239
sub-23979	incongruent	1	0.140
sub-23979	congruent	0	0.104
sub-23979	incongruent	0	0.161
sub-23979	congruent	1	0.034
sub-23979	incongruent	0	0.142
sub-23979	incongruent	1	0.555
sub-23979	congruent	1	0.291
sub-23979	congruent	1	0.452
sub-23979	congruent	1	0.375
sub-23979	congruent	1	0.324
sub-23979	incongruent	0	0.113
sub-23979	congruent	1	0.283
sub-23979	congruent	0	0.020
sub-23979	incongruent	1	0.210
sub-23979	congruent	1	0.272
sub-23979	congruent	0	0.015
sub-23979	incongruent	0	0.308
sub-23979	congruent	0	0.225
sub-23979	congruent	0	0.108
sub-23979	incongruent	1	0.110
sub-23979	congruent	0	0.194
sub-23979	congruent	0	0.046
sub-23979	incongruent	0	0.339
sub-23979	incongruent	1	0.175
sub-23979	congruent	0	0.049
sub-23979	incongruent	1	0.143
sub-23979	incongruent	0	0.205
sub-23979	congruent	0	0.061
sub-23979	incongruent	0	0.130
sub-23979	congruent	0	0.167
sub-23979	congruent	1	0.272
sub-23979	congruent	1	0.293
sub-23979	incongruent	0	0.229
sub-23979	congruent	1	0.225
sub-23979	incongruent	1	0.020
sub-23979	incongruent	1	0.371
sub-23979	incongruent	0	0.019
sub-23979	congruent	1	0.081
sub-23979	congruent	1	0.032
sub-23979	incongruent	0	0.142
sub-23979	incongruent	0	0.245
sub-23979	incongruent	0	0.186
sub-23979	incongruent	0	0.239
sub-23979	incongruent	1	0.245
sub-23979	congruent	1	0.274
sub-23979	congruent	0	0.118
sub-23979	incongruent	0	0.127
sub-23979	congruent	1	0.134
sub-23979	congruent	0	0.023
sub-23979	incongruent	0	0.070
sub-23979	congruent	1	0.287
sub-23979	incongruent	1	0.131
sub-23979	congruent	0	0.194
sub-23979	congruent	1	0.015
sub-23979	incongruent	1	0.091
sub-23979	incongruent	0	0.029
sub-23979	congruent	1	0.413
sub-23979	congruent	1	0.351
sub-23979	congruent	0	0.377
sub-23979	incongruent	1	0.019
sub-23979	incongruent	0	0.021
sub-23979	incongruent	0	0.036
sub-23979	congruent	0	0.087
sub-23979	incongruent	0	0.116
sub-23979	congruent	0	0.021
sub-23979	incongruent	1	0.340
sub-23979	congruent	0	0.157
sub-23979	incongruent	1	0.120
sub-23979	incongruent	1	0.157
sub-23979	incongruent	0	0.041
sub-23979	congruent	1	0.114
sub-23979	congruent	1	0.059
sub-23979	congruent	0	0.352
sub-23979	congruent	0	0.187
sub-23979	congruent	1	0.207
sub-23979	incongruent	0	0.166
