onset	duration	startTime	stopTime	eventIdentifier	trial_type	trial_number	block_number	is_practice	fixation_color	cue_side	aoi_correct	aoi_incorrect
0.14	2.0	2803216	2805250	ShowFixation	VGS	1	1	True	lime	460	[1035 1515  405  675]	[405 885 405 675]
2.174	0.2	2805250	2805486	BlankScreen	VGS	1	1	True	lime	460	[1035 1515  405  675]	[405 885 405 675]
2.41	1.0	2805486	2806527	ELCue	VGS	1	1	True	lime	460	[1035 1515  405  675]	[405 885 405 675]
3.856	6.0	2806932	2813571	ShowFixation	VGS	2	1	True	lime	600	[1350 1830  405  675]	[ 90 570 405 675]
10.496	0.2	2813572	2813811	BlankScreen	VGS	2	1	True	lime	600	[1350 1830  405  675]	[ 90 570 405 675]
10.735	1.0	2813811	2814851	ELCue	VGS	2	1	True	lime	600	[1350 1830  405  675]	[ 90 570 405 675]
12.184	2.0	2815260	2817880	ShowFixation	VGS	3	1	True	lime	600	[1350 1830  405  675]	[ 90 570 405 675]
14.805	0.2	2817881	2818099	BlankScreen	VGS	3	1	True	lime	600	[1350 1830  405  675]	[ 90 570 405 675]
15.023	1.0	2818099	2819122	ELCue	VGS	3	1	True	lime	600	[1350 1830  405  675]	[ 90 570 405 675]
16.446	6.0	2819522	2826168	ShowFixation	VGS	4	1	True	lime	40	[ 90 570 405 675]	[1350 1830  405  675]
23.092	0.2	2826168	2826407	BlankScreen	VGS	4	1	True	lime	40	[ 90 570 405 675]	[1350 1830  405  675]
23.331	1.0	2826407	2827447	ELCue	VGS	4	1	True	lime	40	[ 90 570 405 675]	[1350 1830  405  675]
24.761	6.0	2827837	2834476	ShowFixation	ANTI	5	1	True	red	40	[1350 1830  405  675]	[ 90 570 405 675]
31.4	0.2	2834476	2834716	BlankScreen	ANTI	5	1	True	red	40	[1350 1830  405  675]	[ 90 570 405 675]
31.64	1.0	2834716	2835756	ELCue	ANTI	5	1	True	red	40	[1350 1830  405  675]	[ 90 570 405 675]
33.087	6.0	2836163	2842801	ShowFixation	ANTI	6	1	True	red	180	[1035 1515  405  675]	[405 885 405 675]
39.725	0.2	2842801	2843041	BlankScreen	ANTI	6	1	True	red	180	[1035 1515  405  675]	[405 885 405 675]
39.965	1.0	2843041	2844080	ELCue	ANTI	6	1	True	red	180	[1035 1515  405  675]	[405 885 405 675]
41.41	2.0	2844486	2847109	ShowFixation	ANTI	7	1	True	red	600	[ 90 570 405 675]	[1350 1830  405  675]
44.033	0.2	2847109	2847328	BlankScreen	ANTI	7	1	True	red	600	[ 90 570 405 675]	[1350 1830  405  675]
44.252	1.0	2847328	2848351	ELCue	ANTI	7	1	True	red	600	[ 90 570 405 675]	[1350 1830  405  675]
45.682	6.0	2848758	2855397	ShowFixation	VGS	8	1	True	lime	460	[1035 1515  405  675]	[405 885 405 675]
52.321	0.2	2855397	2855636	BlankScreen	VGS	8	1	True	lime	460	[1035 1515  405  675]	[405 885 405 675]
52.56	1.0	2855636	2856676	ELCue	VGS	8	1	True	lime	460	[1035 1515  405  675]	[405 885 405 675]
53.999	2.0	2857075	2859705	ShowFixation	ANTI	9	1	True	red	460	[405 885 405 675]	[1035 1515  405  675]
56.629	0.2	2859705	2859924	BlankScreen	ANTI	9	1	True	red	460	[405 885 405 675]	[1035 1515  405  675]
56.848	1.0	2859924	2860947	ELCue	ANTI	9	1	True	red	460	[405 885 405 675]	[1035 1515  405  675]
58.275	2.0	2861351	2863993	ShowFixation	ANTI	10	1	True	red	180	[1035 1515  405  675]	[405 885 405 675]
60.917	0.2	2863993	2864228	BlankScreen	ANTI	10	1	True	red	180	[1035 1515  405  675]	[405 885 405 675]
61.152	1.0	2864228	2865268	ELCue	ANTI	10	1	True	red	180	[1035 1515  405  675]	[405 885 405 675]
62.598	6.0	2865674	2872314	ShowFixation	VGS	11	1	True	lime	180	[405 885 405 675]	[1035 1515  405  675]
69.238	0.2	2872314	2872553	BlankScreen	VGS	11	1	True	lime	180	[405 885 405 675]	[1035 1515  405  675]
69.477	1.0	2872553	2873593	ELCue	VGS	11	1	True	lime	180	[405 885 405 675]	[1035 1515  405  675]
70.92	6.0	2873996	2880639	ShowFixation	ANTI	12	1	True	red	460	[405 885 405 675]	[1035 1515  405  675]
77.563	0.2	2880639	2880878	BlankScreen	ANTI	12	1	True	red	460	[405 885 405 675]	[1035 1515  405  675]
77.802	1.0	2880878	2881915	ELCue	ANTI	12	1	True	red	460	[405 885 405 675]	[1035 1515  405  675]
79.247	2.0	2882323	2884963	ShowFixation	VGS	13	1	True	lime	180	[405 885 405 675]	[1035 1515  405  675]
81.887	0.2	2884963	2885199	BlankScreen	VGS	13	1	True	lime	180	[405 885 405 675]	[1035 1515  405  675]
82.123	1.0	2885199	2886239	ELCue	VGS	13	1	True	lime	180	[405 885 405 675]	[1035 1515  405  675]
83.568	6.0	2886644	2893268	ShowFixation	ANTI	14	1	True	red	600	[ 90 570 405 675]	[1350 1830  405  675]
90.192	0.2	2893268	2893507	BlankScreen	ANTI	14	1	True	red	600	[ 90 570 405 675]	[1350 1830  405  675]
90.431	1.0	2893507	2894547	ELCue	ANTI	14	1	True	red	600	[ 90 570 405 675]	[1350 1830  405  675]
91.868	2.0	2894944	2897576	ShowFixation	VGS	15	1	True	lime	40	[ 90 570 405 675]	[1350 1830  405  675]
94.5	0.2	2897576	2897795	BlankScreen	VGS	15	1	True	lime	40	[ 90 570 405 675]	[1350 1830  405  675]
94.719	1.0	2897795	2898818	ELCue	VGS	15	1	True	lime	40	[ 90 570 405 675]	[1350 1830  405  675]
96.145	2.0	2899221	2901863	ShowFixation	ANTI	16	1	True	red	40	[1350 1830  405  675]	[ 90 570 405 675]
98.787	0.2	2901863	2902099	BlankScreen	ANTI	16	1	True	red	40	[1350 1830  405  675]	[ 90 570 405 675]
99.023	1.0	2902099	2903139	ELCue	ANTI	16	1	True	red	40	[1350 1830  405  675]	[ 90 570 405 675]
122.826	6.0	2925902	2931939	ShowFixation	VGS	17	2	False	lime	600	[1350 1830  405  675]	[ 90 570 405 675]
128.863	0.2	2931939	2932178	BlankScreen	VGS	17	2	False	lime	600	[1350 1830  405  675]	[ 90 570 405 675]
129.102	1.0	2932178	2933178	ELCue	VGS	17	2	False	lime	600	[1350 1830  405  675]	[ 90 570 405 675]
130.505	6.0	2933581	2939613	ShowFixation	VGS	18	2	False	lime	180	[405 885 405 675]	[1035 1515  405  675]
136.537	0.2	2939613	2939853	BlankScreen	VGS	18	2	False	lime	180	[405 885 405 675]	[1035 1515  405  675]
136.777	1.0	2939853	2940853	ELCue	VGS	18	2	False	lime	180	[405 885 405 675]	[1035 1515  405  675]
138.183	2.0	2941259	2943288	ShowFixation	ANTI	19	2	False	red	600	[ 90 570 405 675]	[1350 1830  405  675]
140.212	0.2	2943288	2943523	BlankScreen	ANTI	19	2	False	red	600	[ 90 570 405 675]	[1350 1830  405  675]
140.447	1.0	2943523	2944523	ELCue	ANTI	19	2	False	red	600	[ 90 570 405 675]	[1350 1830  405  675]
141.856	6.0	2944932	2950958	ShowFixation	VGS	20	2	False	lime	40	[ 90 570 405 675]	[1350 1830  405  675]
147.882	0.2	2950958	2951197	BlankScreen	VGS	20	2	False	lime	40	[ 90 570 405 675]	[1350 1830  405  675]
148.122	1.0	2951198	2952198	ELCue	VGS	20	2	False	lime	40	[ 90 570 405 675]	[1350 1830  405  675]
149.533	2.0	2952609	2954649	ShowFixation	VGS	21	2	False	lime	180	[405 885 405 675]	[1035 1515  405  675]
151.574	0.2	2954650	2954884	BlankScreen	VGS	21	2	False	lime	180	[405 885 405 675]	[1035 1515  405  675]
151.809	1.0	2954885	2955885	ELCue	VGS	21	2	False	lime	180	[405 885 405 675]	[1035 1515  405  675]
153.217	6.0	2956293	2962320	ShowFixation	VGS	22	2	False	lime	460	[1035 1515  405  675]	[405 885 405 675]
159.244	0.2	2962320	2962559	BlankScreen	VGS	22	2	False	lime	460	[1035 1515  405  675]	[405 885 405 675]
159.483	1.0	2962559	2963559	ELCue	VGS	22	2	False	lime	460	[1035 1515  405  675]	[405 885 405 675]
160.892	2.0	2963968	2965994	ShowFixation	VGS	23	2	False	lime	600	[1350 1830  405  675]	[ 90 570 405 675]
162.918	0.2	2965994	2966230	BlankScreen	VGS	23	2	False	lime	600	[1350 1830  405  675]	[ 90 570 405 675]
163.154	1.0	2966230	2967230	ELCue	VGS	23	2	False	lime	600	[1350 1830  405  675]	[ 90 570 405 675]
164.56	6.0	2967636	2973665	ShowFixation	ANTI	24	2	False	red	180	[1035 1515  405  675]	[405 885 405 675]
170.589	0.2	2973665	2973904	BlankScreen	ANTI	24	2	False	red	180	[1035 1515  405  675]	[405 885 405 675]
170.828	1.0	2973904	2974904	ELCue	ANTI	24	2	False	red	180	[1035 1515  405  675]	[405 885 405 675]
172.236	2.0	2975312	2977339	ShowFixation	ANTI	25	2	False	red	40	[1350 1830  405  675]	[ 90 570 405 675]
174.263	0.2	2977339	2977574	BlankScreen	ANTI	25	2	False	red	40	[1350 1830  405  675]	[ 90 570 405 675]
174.498	1.0	2977574	2978574	ELCue	ANTI	25	2	False	red	40	[1350 1830  405  675]	[ 90 570 405 675]
175.888	6.0	2978964	2984993	ShowFixation	ANTI	26	2	False	red	460	[405 885 405 675]	[1035 1515  405  675]
181.917	0.2	2984993	2985232	BlankScreen	ANTI	26	2	False	red	460	[405 885 405 675]	[1035 1515  405  675]
182.156	1.0	2985232	2986232	ELCue	ANTI	26	2	False	red	460	[405 885 405 675]	[1035 1515  405  675]
183.567	6.0	2986643	2992683	ShowFixation	ANTI	27	2	False	red	600	[ 90 570 405 675]	[1350 1830  405  675]
189.607	0.2	2992683	2992923	BlankScreen	ANTI	27	2	False	red	600	[ 90 570 405 675]	[1350 1830  405  675]
189.847	1.0	2992923	2993923	ELCue	ANTI	27	2	False	red	600	[ 90 570 405 675]	[1350 1830  405  675]
191.254	2.0	2994330	2996358	ShowFixation	ANTI	28	2	False	red	460	[405 885 405 675]	[1035 1515  405  675]
193.282	0.2	2996358	2996593	BlankScreen	ANTI	28	2	False	red	460	[405 885 405 675]	[1035 1515  405  675]
193.517	1.0	2996593	2997593	ELCue	ANTI	28	2	False	red	460	[405 885 405 675]	[1035 1515  405  675]
194.928	2.0	2998004	3000045	ShowFixation	ANTI	29	2	False	red	40	[1350 1830  405  675]	[ 90 570 405 675]
196.969	0.2	3000045	3000280	BlankScreen	ANTI	29	2	False	red	40	[1350 1830  405  675]	[ 90 570 405 675]
197.204	1.0	3000280	3001280	ELCue	ANTI	29	2	False	red	40	[1350 1830  405  675]	[ 90 570 405 675]
198.616	2.0	3001692	3003732	ShowFixation	ANTI	30	2	False	red	600	[ 90 570 405 675]	[1350 1830  405  675]
200.656	0.2	3003732	3003967	BlankScreen	ANTI	30	2	False	red	600	[ 90 570 405 675]	[1350 1830  405  675]
200.891	1.0	3003967	3004967	ELCue	ANTI	30	2	False	red	600	[ 90 570 405 675]	[1350 1830  405  675]
202.303	2.0	3005379	3007419	ShowFixation	VGS	31	2	False	lime	460	[1035 1515  405  675]	[405 885 405 675]
204.343	0.2	3007419	3007654	BlankScreen	VGS	31	2	False	lime	460	[1035 1515  405  675]	[405 885 405 675]
204.578	1.0	3007654	3008654	ELCue	VGS	31	2	False	lime	460	[1035 1515  405  675]	[405 885 405 675]
205.986	2.0	3009062	3011089	ShowFixation	ANTI	32	2	False	red	180	[1035 1515  405  675]	[405 885 405 675]
208.013	0.2	3011089	3011324	BlankScreen	ANTI	32	2	False	red	180	[1035 1515  405  675]	[405 885 405 675]
208.248	1.0	3011324	3012324	ELCue	ANTI	32	2	False	red	180	[1035 1515  405  675]	[405 885 405 675]
209.657	6.0	3012733	3018759	ShowFixation	ANTI	33	2	False	red	180	[1035 1515  405  675]	[405 885 405 675]
215.683	0.2	3018759	3018998	BlankScreen	ANTI	33	2	False	red	180	[1035 1515  405  675]	[405 885 405 675]
215.922	1.0	3018998	3019998	ELCue	ANTI	33	2	False	red	180	[1035 1515  405  675]	[405 885 405 675]
217.325	6.0	3020401	3026433	ShowFixation	ANTI	34	2	False	red	40	[1350 1830  405  675]	[ 90 570 405 675]
223.357	0.2	3026433	3026673	BlankScreen	ANTI	34	2	False	red	40	[1350 1830  405  675]	[ 90 570 405 675]
223.597	1.0	3026673	3027673	ELCue	ANTI	34	2	False	red	40	[1350 1830  405  675]	[ 90 570 405 675]
225.0	2.0	3028076	3030108	ShowFixation	VGS	35	2	False	lime	180	[405 885 405 675]	[1035 1515  405  675]
227.032	0.2	3030108	3030343	BlankScreen	VGS	35	2	False	lime	180	[405 885 405 675]	[1035 1515  405  675]
227.267	1.0	3030343	3031343	ELCue	VGS	35	2	False	lime	180	[405 885 405 675]	[1035 1515  405  675]
228.672	6.0	3031748	3037778	ShowFixation	ANTI	36	2	False	red	40	[1350 1830  405  675]	[ 90 570 405 675]
234.702	0.2	3037778	3038017	BlankScreen	ANTI	36	2	False	red	40	[1350 1830  405  675]	[ 90 570 405 675]
234.941	1.0	3038017	3039017	ELCue	ANTI	36	2	False	red	40	[1350 1830  405  675]	[ 90 570 405 675]
236.351	6.0	3039427	3045452	ShowFixation	ANTI	37	2	False	red	600	[ 90 570 405 675]	[1350 1830  405  675]
242.376	0.2	3045452	3045691	BlankScreen	ANTI	37	2	False	red	600	[ 90 570 405 675]	[1350 1830  405  675]
242.615	1.0	3045691	3046691	ELCue	ANTI	37	2	False	red	600	[ 90 570 405 675]	[1350 1830  405  675]
244.022	2.0	3047098	3049126	ShowFixation	VGS	38	2	False	lime	40	[ 90 570 405 675]	[1350 1830  405  675]
246.05	0.2	3049126	3049362	BlankScreen	VGS	38	2	False	lime	40	[ 90 570 405 675]	[1350 1830  405  675]
246.286	1.0	3049362	3050362	ELCue	VGS	38	2	False	lime	40	[ 90 570 405 675]	[1350 1830  405  675]
247.678	2.0	3050754	3052780	ShowFixation	ANTI	39	2	False	red	460	[405 885 405 675]	[1035 1515  405  675]
249.704	0.2	3052780	3053015	BlankScreen	ANTI	39	2	False	red	460	[405 885 405 675]	[1035 1515  405  675]
249.939	1.0	3053015	3054015	ELCue	ANTI	39	2	False	red	460	[405 885 405 675]	[1035 1515  405  675]
251.347	2.0	3054423	3056450	ShowFixation	VGS	40	2	False	lime	460	[1035 1515  405  675]	[405 885 405 675]
253.374	0.2	3056450	3056686	BlankScreen	VGS	40	2	False	lime	460	[1035 1515  405  675]	[405 885 405 675]
253.61	1.0	3056686	3057686	ELCue	VGS	40	2	False	lime	460	[1035 1515  405  675]	[405 885 405 675]
255.019	6.0	3058095	3064121	ShowFixation	VGS	41	2	False	lime	180	[405 885 405 675]	[1035 1515  405  675]
261.045	0.2	3064121	3064360	BlankScreen	VGS	41	2	False	lime	180	[405 885 405 675]	[1035 1515  405  675]
261.284	1.0	3064360	3065360	ELCue	VGS	41	2	False	lime	180	[405 885 405 675]	[1035 1515  405  675]
262.683	6.0	3065759	3071795	ShowFixation	VGS	42	2	False	lime	600	[1350 1830  405  675]	[ 90 570 405 675]
268.719	0.2	3071795	3072034	BlankScreen	VGS	42	2	False	lime	600	[1350 1830  405  675]	[ 90 570 405 675]
268.958	1.0	3072034	3073034	ELCue	VGS	42	2	False	lime	600	[1350 1830  405  675]	[ 90 570 405 675]
270.448	6.0	3073524	3079552	ShowFixation	VGS	43	2	False	lime	460	[1035 1515  405  675]	[405 885 405 675]
276.476	0.2	3079552	3079792	BlankScreen	VGS	43	2	False	lime	460	[1035 1515  405  675]	[405 885 405 675]
276.716	1.0	3079792	3080792	ELCue	VGS	43	2	False	lime	460	[1035 1515  405  675]	[405 885 405 675]
278.12	2.0	3081196	3083227	ShowFixation	VGS	44	2	False	lime	600	[1350 1830  405  675]	[ 90 570 405 675]
280.151	0.2	3083227	3083462	BlankScreen	VGS	44	2	False	lime	600	[1350 1830  405  675]	[ 90 570 405 675]
280.386	1.0	3083462	3084462	ELCue	VGS	44	2	False	lime	600	[1350 1830  405  675]	[ 90 570 405 675]
281.792	2.0	3084868	3086897	ShowFixation	VGS	45	2	False	lime	40	[ 90 570 405 675]	[1350 1830  405  675]
283.821	0.2	3086897	3087132	BlankScreen	VGS	45	2	False	lime	40	[ 90 570 405 675]	[1350 1830  405  675]
284.056	1.0	3087132	3088132	ELCue	VGS	45	2	False	lime	40	[ 90 570 405 675]	[1350 1830  405  675]
285.463	6.0	3088539	3094567	ShowFixation	VGS	46	2	False	lime	40	[ 90 570 405 675]	[1350 1830  405  675]
291.492	0.2	3094568	3094807	BlankScreen	VGS	46	2	False	lime	40	[ 90 570 405 675]	[1350 1830  405  675]
291.732	1.0	3094808	3095808	ELCue	VGS	46	2	False	lime	40	[ 90 570 405 675]	[1350 1830  405  675]
293.138	6.0	3096214	3102242	ShowFixation	ANTI	47	2	False	red	460	[405 885 405 675]	[1035 1515  405  675]
299.167	0.2	3102243	3102482	BlankScreen	ANTI	47	2	False	red	460	[405 885 405 675]	[1035 1515  405  675]
299.406	1.0	3102482	3103482	ELCue	ANTI	47	2	False	red	460	[405 885 405 675]	[1035 1515  405  675]
300.813	2.0	3103889	3105917	ShowFixation	ANTI	48	2	False	red	180	[1035 1515  405  675]	[405 885 405 675]
302.841	0.2	3105917	3106152	BlankScreen	ANTI	48	2	False	red	180	[1035 1515  405  675]	[405 885 405 675]
303.076	1.0	3106152	3107152	ELCue	ANTI	48	2	False	red	180	[1035 1515  405  675]	[405 885 405 675]
328.187	6.0	3131263	3137294	ShowFixation	ANTI	49	3	False	red	600	[ 90 570 405 675]	[1350 1830  405  675]
334.218	0.2	3137294	3137533	BlankScreen	ANTI	49	3	False	red	600	[ 90 570 405 675]	[1350 1830  405  675]
334.457	1.0	3137533	3138533	ELCue	ANTI	49	3	False	red	600	[ 90 570 405 675]	[1350 1830  405  675]
335.86	6.0	3138936	3144968	ShowFixation	ANTI	50	3	False	red	600	[ 90 570 405 675]	[1350 1830  405  675]
341.892	0.2	3144968	3145207	BlankScreen	ANTI	50	3	False	red	600	[ 90 570 405 675]	[1350 1830  405  675]
342.131	1.0	3145207	3146207	ELCue	ANTI	50	3	False	red	600	[ 90 570 405 675]	[1350 1830  405  675]
343.538	6.0	3146614	3152642	ShowFixation	VGS	51	3	False	lime	180	[405 885 405 675]	[1035 1515  405  675]
349.566	0.2	3152642	3152882	BlankScreen	VGS	51	3	False	lime	180	[405 885 405 675]	[1035 1515  405  675]
349.806	1.0	3152882	3153882	ELCue	VGS	51	3	False	lime	180	[405 885 405 675]	[1035 1515  405  675]
351.212	2.0	3154288	3156316	ShowFixation	ANTI	52	3	False	red	600	[ 90 570 405 675]	[1350 1830  405  675]
353.24	0.2	3156316	3156552	BlankScreen	ANTI	52	3	False	red	600	[ 90 570 405 675]	[1350 1830  405  675]
353.476	1.0	3156552	3157552	ELCue	ANTI	52	3	False	red	600	[ 90 570 405 675]	[1350 1830  405  675]
354.883	2.0	3157959	3159987	ShowFixation	VGS	53	3	False	lime	600	[1350 1830  405  675]	[ 90 570 405 675]
356.911	0.2	3159987	3160222	BlankScreen	VGS	53	3	False	lime	600	[1350 1830  405  675]	[ 90 570 405 675]
357.146	1.0	3160222	3161222	ELCue	VGS	53	3	False	lime	600	[1350 1830  405  675]	[ 90 570 405 675]
358.557	2.0	3161633	3163674	ShowFixation	VGS	54	3	False	lime	40	[ 90 570 405 675]	[1350 1830  405  675]
360.598	0.2	3163674	3163909	BlankScreen	VGS	54	3	False	lime	40	[ 90 570 405 675]	[1350 1830  405  675]
360.833	1.0	3163909	3164909	ELCue	VGS	54	3	False	lime	40	[ 90 570 405 675]	[1350 1830  405  675]
362.243	2.0	3165319	3167344	ShowFixation	ANTI	55	3	False	red	460	[405 885 405 675]	[1035 1515  405  675]
364.268	0.2	3167344	3167579	BlankScreen	ANTI	55	3	False	red	460	[405 885 405 675]	[1035 1515  405  675]
364.503	1.0	3167579	3168579	ELCue	ANTI	55	3	False	red	460	[405 885 405 675]	[1035 1515  405  675]
365.915	6.0	3168991	3175031	ShowFixation	ANTI	56	3	False	red	180	[1035 1515  405  675]	[405 885 405 675]
371.955	0.2	3175031	3175270	BlankScreen	ANTI	56	3	False	red	180	[1035 1515  405  675]	[405 885 405 675]
372.194	1.0	3175270	3176270	ELCue	ANTI	56	3	False	red	180	[1035 1515  405  675]	[405 885 405 675]
373.594	2.0	3176670	3178705	ShowFixation	ANTI	57	3	False	red	180	[1035 1515  405  675]	[405 885 405 675]
375.629	0.2	3178705	3178941	BlankScreen	ANTI	57	3	False	red	180	[1035 1515  405  675]	[405 885 405 675]
375.865	1.0	3178941	3179941	ELCue	ANTI	57	3	False	red	180	[1035 1515  405  675]	[405 885 405 675]
377.267	6.0	3180343	3186376	ShowFixation	ANTI	58	3	False	red	180	[1035 1515  405  675]	[405 885 405 675]
383.3	0.2	3186376	3186615	BlankScreen	ANTI	58	3	False	red	180	[1035 1515  405  675]	[405 885 405 675]
383.539	1.0	3186615	3187615	ELCue	ANTI	58	3	False	red	180	[1035 1515  405  675]	[405 885 405 675]
384.946	2.0	3188022	3190050	ShowFixation	VGS	59	3	False	lime	180	[405 885 405 675]	[1035 1515  405  675]
386.974	0.2	3190050	3190285	BlankScreen	VGS	59	3	False	lime	180	[405 885 405 675]	[1035 1515  405  675]
387.209	1.0	3190285	3191285	ELCue	VGS	59	3	False	lime	180	[405 885 405 675]	[1035 1515  405  675]
388.618	2.0	3191694	3193720	ShowFixation	ANTI	60	3	False	red	460	[405 885 405 675]	[1035 1515  405  675]
390.644	0.2	3193720	3193955	BlankScreen	ANTI	60	3	False	red	460	[405 885 405 675]	[1035 1515  405  675]
390.879	1.0	3193955	3194955	ELCue	ANTI	60	3	False	red	460	[405 885 405 675]	[1035 1515  405  675]
392.282	6.0	3195358	3201390	ShowFixation	VGS	61	3	False	lime	460	[1035 1515  405  675]	[405 885 405 675]
398.314	0.2	3201390	3201630	BlankScreen	VGS	61	3	False	lime	460	[1035 1515  405  675]	[405 885 405 675]
398.554	1.0	3201630	3202630	ELCue	VGS	61	3	False	lime	460	[1035 1515  405  675]	[405 885 405 675]
399.963	6.0	3203039	3209065	ShowFixation	ANTI	62	3	False	red	40	[1350 1830  405  675]	[ 90 570 405 675]
405.989	0.2	3209065	3209304	BlankScreen	ANTI	62	3	False	red	40	[1350 1830  405  675]	[ 90 570 405 675]
406.228	1.0	3209304	3210304	ELCue	ANTI	62	3	False	red	40	[1350 1830  405  675]	[ 90 570 405 675]
407.614	2.0	3210690	3212722	ShowFixation	VGS	63	3	False	lime	180	[405 885 405 675]	[1035 1515  405  675]
409.646	0.2	3212722	3212957	BlankScreen	VGS	63	3	False	lime	180	[405 885 405 675]	[1035 1515  405  675]
409.881	1.0	3212957	3213957	ELCue	VGS	63	3	False	lime	180	[405 885 405 675]	[1035 1515  405  675]
411.289	2.0	3214365	3216392	ShowFixation	ANTI	64	3	False	red	40	[1350 1830  405  675]	[ 90 570 405 675]
413.316	0.2	3216392	3216628	BlankScreen	ANTI	64	3	False	red	40	[1350 1830  405  675]	[ 90 570 405 675]
413.552	1.0	3216628	3217628	ELCue	ANTI	64	3	False	red	40	[1350 1830  405  675]	[ 90 570 405 675]
414.958	2.0	3218034	3220063	ShowFixation	VGS	65	3	False	lime	460	[1035 1515  405  675]	[405 885 405 675]
416.987	0.2	3220063	3220298	BlankScreen	VGS	65	3	False	lime	460	[1035 1515  405  675]	[405 885 405 675]
417.222	1.0	3220298	3221298	ELCue	VGS	65	3	False	lime	460	[1035 1515  405  675]	[405 885 405 675]
418.631	2.0	3221707	3223733	ShowFixation	ANTI	66	3	False	red	600	[ 90 570 405 675]	[1350 1830  405  675]
420.657	0.2	3223733	3223968	BlankScreen	ANTI	66	3	False	red	600	[ 90 570 405 675]	[1350 1830  405  675]
420.892	1.0	3223968	3224968	ELCue	ANTI	66	3	False	red	600	[ 90 570 405 675]	[1350 1830  405  675]
422.293	6.0	3225369	3231403	ShowFixation	ANTI	67	3	False	red	460	[405 885 405 675]	[1035 1515  405  675]
428.327	0.2	3231403	3231643	BlankScreen	ANTI	67	3	False	red	460	[405 885 405 675]	[1035 1515  405  675]
428.567	1.0	3231643	3232643	ELCue	ANTI	67	3	False	red	460	[405 885 405 675]	[1035 1515  405  675]
429.976	2.0	3233052	3235078	ShowFixation	VGS	68	3	False	lime	600	[1350 1830  405  675]	[ 90 570 405 675]
432.002	0.2	3235078	3235313	BlankScreen	VGS	68	3	False	lime	600	[1350 1830  405  675]	[ 90 570 405 675]
432.237	1.0	3235313	3236313	ELCue	VGS	68	3	False	lime	600	[1350 1830  405  675]	[ 90 570 405 675]
433.644	6.0	3236720	3242748	ShowFixation	VGS	69	3	False	lime	40	[ 90 570 405 675]	[1350 1830  405  675]
439.673	0.2	3242749	3242987	BlankScreen	VGS	69	3	False	lime	40	[ 90 570 405 675]	[1350 1830  405  675]
439.912	1.0	3242988	3243988	ELCue	VGS	69	3	False	lime	40	[ 90 570 405 675]	[1350 1830  405  675]
441.317	6.0	3244393	3250423	ShowFixation	VGS	70	3	False	lime	600	[1350 1830  405  675]	[ 90 570 405 675]
447.347	0.2	3250423	3250662	BlankScreen	VGS	70	3	False	lime	600	[1350 1830  405  675]	[ 90 570 405 675]
447.586	1.0	3250662	3251662	ELCue	VGS	70	3	False	lime	600	[1350 1830  405  675]	[ 90 570 405 675]
448.996	6.0	3252072	3258097	ShowFixation	ANTI	71	3	False	red	460	[405 885 405 675]	[1035 1515  405  675]
455.021	0.2	3258097	3258337	BlankScreen	ANTI	71	3	False	red	460	[405 885 405 675]	[1035 1515  405  675]
455.261	1.0	3258337	3259337	ELCue	ANTI	71	3	False	red	460	[405 885 405 675]	[1035 1515  405  675]
456.669	2.0	3259745	3261772	ShowFixation	ANTI	72	3	False	red	40	[1350 1830  405  675]	[ 90 570 405 675]
458.696	0.2	3261772	3262007	BlankScreen	ANTI	72	3	False	red	40	[1350 1830  405  675]	[ 90 570 405 675]
458.931	1.0	3262007	3263007	ELCue	ANTI	72	3	False	red	40	[1350 1830  405  675]	[ 90 570 405 675]
460.338	2.0	3263414	3265442	ShowFixation	ANTI	73	3	False	red	180	[1035 1515  405  675]	[405 885 405 675]
462.366	0.2	3265442	3265677	BlankScreen	ANTI	73	3	False	red	180	[1035 1515  405  675]	[405 885 405 675]
462.601	1.0	3265677	3266677	ELCue	ANTI	73	3	False	red	180	[1035 1515  405  675]	[405 885 405 675]
464.009	6.0	3267085	3273112	ShowFixation	VGS	74	3	False	lime	600	[1350 1830  405  675]	[ 90 570 405 675]
470.036	0.2	3273112	3273351	BlankScreen	VGS	74	3	False	lime	600	[1350 1830  405  675]	[ 90 570 405 675]
470.275	1.0	3273351	3274351	ELCue	VGS	74	3	False	lime	600	[1350 1830  405  675]	[ 90 570 405 675]
471.682	6.0	3274758	3280786	ShowFixation	VGS	75	3	False	lime	460	[1035 1515  405  675]	[405 885 405 675]
477.71	0.2	3280786	3281026	BlankScreen	VGS	75	3	False	lime	460	[1035 1515  405  675]	[405 885 405 675]
477.95	1.0	3281026	3282026	ELCue	VGS	75	3	False	lime	460	[1035 1515  405  675]	[405 885 405 675]
479.356	2.0	3282432	3284461	ShowFixation	VGS	76	3	False	lime	40	[ 90 570 405 675]	[1350 1830  405  675]
481.385	0.2	3284461	3284696	BlankScreen	VGS	76	3	False	lime	40	[ 90 570 405 675]	[1350 1830  405  675]
481.62	1.0	3284696	3285696	ELCue	VGS	76	3	False	lime	40	[ 90 570 405 675]	[1350 1830  405  675]
483.03	6.0	3286106	3292131	ShowFixation	VGS	77	3	False	lime	40	[ 90 570 405 675]	[1350 1830  405  675]
489.055	0.2	3292131	3292370	BlankScreen	VGS	77	3	False	lime	40	[ 90 570 405 675]	[1350 1830  405  675]
489.294	1.0	3292370	3293370	ELCue	VGS	77	3	False	lime	40	[ 90 570 405 675]	[1350 1830  405  675]
490.707	6.0	3293783	3299822	ShowFixation	ANTI	78	3	False	red	40	[1350 1830  405  675]	[ 90 570 405 675]
496.746	0.2	3299822	3300061	BlankScreen	ANTI	78	3	False	red	40	[1350 1830  405  675]	[ 90 570 405 675]
496.985	1.0	3300061	3301061	ELCue	ANTI	78	3	False	red	40	[1350 1830  405  675]	[ 90 570 405 675]
498.396	2.0	3301472	3303513	ShowFixation	VGS	79	3	False	lime	460	[1035 1515  405  675]	[405 885 405 675]
500.437	0.2	3303513	3303748	BlankScreen	VGS	79	3	False	lime	460	[1035 1515  405  675]	[405 885 405 675]
500.672	1.0	3303748	3304748	ELCue	VGS	79	3	False	lime	460	[1035 1515  405  675]	[405 885 405 675]
502.081	6.0	3305157	3311183	ShowFixation	VGS	80	3	False	lime	180	[405 885 405 675]	[1035 1515  405  675]
508.107	0.2	3311183	3311422	BlankScreen	VGS	80	3	False	lime	180	[405 885 405 675]	[1035 1515  405  675]
508.346	1.0	3311422	3312422	ELCue	VGS	80	3	False	lime	180	[405 885 405 675]	[1035 1515  405  675]
540.791	2.0	3343867	3345905	ShowFixation	VGS	81	4	False	lime	180	[405 885 405 675]	[1035 1515  405  675]
542.829	0.2	3345905	3346140	BlankScreen	VGS	81	4	False	lime	180	[405 885 405 675]	[1035 1515  405  675]
543.064	1.0	3346140	3347140	ELCue	VGS	81	4	False	lime	180	[405 885 405 675]	[1035 1515  405  675]
544.432	2.0	3347508	3349541	ShowFixation	VGS	82	4	False	lime	600	[1350 1830  405  675]	[ 90 570 405 675]
546.465	0.2	3349541	3349777	BlankScreen	VGS	82	4	False	lime	600	[1350 1830  405  675]	[ 90 570 405 675]
546.701	1.0	3349777	3350777	ELCue	VGS	82	4	False	lime	600	[1350 1830  405  675]	[ 90 570 405 675]
548.106	2.0	3351182	3353212	ShowFixation	VGS	83	4	False	lime	600	[1350 1830  405  675]	[ 90 570 405 675]
550.136	0.2	3353212	3353447	BlankScreen	VGS	83	4	False	lime	600	[1350 1830  405  675]	[ 90 570 405 675]
550.371	1.0	3353447	3354447	ELCue	VGS	83	4	False	lime	600	[1350 1830  405  675]	[ 90 570 405 675]
551.78	2.0	3354856	3356882	ShowFixation	VGS	84	4	False	lime	180	[405 885 405 675]	[1035 1515  405  675]
553.806	0.2	3356882	3357117	BlankScreen	VGS	84	4	False	lime	180	[405 885 405 675]	[1035 1515  405  675]
554.041	1.0	3357117	3358117	ELCue	VGS	84	4	False	lime	180	[405 885 405 675]	[1035 1515  405  675]
555.426	6.0	3358502	3364536	ShowFixation	ANTI	85	4	False	red	460	[405 885 405 675]	[1035 1515  405  675]
561.46	0.2	3364536	3364775	BlankScreen	ANTI	85	4	False	red	460	[405 885 405 675]	[1035 1515  405  675]
561.699	1.0	3364775	3365775	ELCue	ANTI	85	4	False	red	460	[405 885 405 675]	[1035 1515  405  675]
563.23	2.0	3366306	3368343	ShowFixation	ANTI	86	4	False	red	40	[1350 1830  405  675]	[ 90 570 405 675]
565.267	0.2	3368343	3368579	BlankScreen	ANTI	86	4	False	red	40	[1350 1830  405  675]	[ 90 570 405 675]
565.503	1.0	3368579	3369579	ELCue	ANTI	86	4	False	red	40	[1350 1830  405  675]	[ 90 570 405 675]
566.914	2.0	3369990	3372030	ShowFixation	ANTI	87	4	False	red	600	[ 90 570 405 675]	[1350 1830  405  675]
568.954	0.2	3372030	3372266	BlankScreen	ANTI	87	4	False	red	600	[ 90 570 405 675]	[1350 1830  405  675]
569.19	1.0	3372266	3373266	ELCue	ANTI	87	4	False	red	600	[ 90 570 405 675]	[1350 1830  405  675]
570.597	6.0	3373673	3379701	ShowFixation	VGS	88	4	False	lime	600	[1350 1830  405  675]	[ 90 570 405 675]
576.626	0.2	3379702	3379940	BlankScreen	VGS	88	4	False	lime	600	[1350 1830  405  675]	[ 90 570 405 675]
576.865	1.0	3379941	3380941	ELCue	VGS	88	4	False	lime	600	[1350 1830  405  675]	[ 90 570 405 675]
578.271	6.0	3381347	3387376	ShowFixation	VGS	89	4	False	lime	460	[1035 1515  405  675]	[405 885 405 675]
584.3	0.2	3387376	3387615	BlankScreen	VGS	89	4	False	lime	460	[1035 1515  405  675]	[405 885 405 675]
584.539	1.0	3387615	3388615	ELCue	VGS	89	4	False	lime	460	[1035 1515  405  675]	[405 885 405 675]
585.944	6.0	3389020	3395050	ShowFixation	ANTI	90	4	False	red	40	[1350 1830  405  675]	[ 90 570 405 675]
591.974	0.2	3395050	3395289	BlankScreen	ANTI	90	4	False	red	40	[1350 1830  405  675]	[ 90 570 405 675]
592.213	1.0	3395289	3396289	ELCue	ANTI	90	4	False	red	40	[1350 1830  405  675]	[ 90 570 405 675]
593.62	2.0	3396696	3398724	ShowFixation	VGS	91	4	False	lime	460	[1035 1515  405  675]	[405 885 405 675]
595.648	0.2	3398724	3398960	BlankScreen	VGS	91	4	False	lime	460	[1035 1515  405  675]	[405 885 405 675]
595.884	1.0	3398960	3399960	ELCue	VGS	91	4	False	lime	460	[1035 1515  405  675]	[405 885 405 675]
597.286	2.0	3400362	3402395	ShowFixation	VGS	92	4	False	lime	460	[1035 1515  405  675]	[405 885 405 675]
599.319	0.2	3402395	3402630	BlankScreen	VGS	92	4	False	lime	460	[1035 1515  405  675]	[405 885 405 675]
599.554	1.0	3402630	3403630	ELCue	VGS	92	4	False	lime	460	[1035 1515  405  675]	[405 885 405 675]
600.962	6.0	3404038	3410065	ShowFixation	ANTI	93	4	False	red	460	[405 885 405 675]	[1035 1515  405  675]
606.989	0.2	3410065	3410304	BlankScreen	ANTI	93	4	False	red	460	[405 885 405 675]	[1035 1515  405  675]
607.228	1.0	3410304	3411304	ELCue	ANTI	93	4	False	red	460	[405 885 405 675]	[1035 1515  405  675]
608.63	6.0	3411706	3417739	ShowFixation	VGS	94	4	False	lime	180	[405 885 405 675]	[1035 1515  405  675]
614.663	0.2	3417739	3417978	BlankScreen	VGS	94	4	False	lime	180	[405 885 405 675]	[1035 1515  405  675]
614.902	1.0	3417978	3418978	ELCue	VGS	94	4	False	lime	180	[405 885 405 675]	[1035 1515  405  675]
616.307	6.0	3419383	3425413	ShowFixation	VGS	95	4	False	lime	600	[1350 1830  405  675]	[ 90 570 405 675]
622.337	0.2	3425413	3425653	BlankScreen	VGS	95	4	False	lime	600	[1350 1830  405  675]	[ 90 570 405 675]
622.577	1.0	3425653	3426653	ELCue	VGS	95	4	False	lime	600	[1350 1830  405  675]	[ 90 570 405 675]
623.985	6.0	3427061	3433088	ShowFixation	VGS	96	4	False	lime	460	[1035 1515  405  675]	[405 885 405 675]
630.012	0.2	3433088	3433327	BlankScreen	VGS	96	4	False	lime	460	[1035 1515  405  675]	[405 885 405 675]
630.251	1.0	3433327	3434327	ELCue	VGS	96	4	False	lime	460	[1035 1515  405  675]	[405 885 405 675]
631.657	2.0	3434733	3436762	ShowFixation	ANTI	97	4	False	red	600	[ 90 570 405 675]	[1350 1830  405  675]
633.686	0.2	3436762	3436997	BlankScreen	ANTI	97	4	False	red	600	[ 90 570 405 675]	[1350 1830  405  675]
633.921	1.0	3436997	3437997	ELCue	ANTI	97	4	False	red	600	[ 90 570 405 675]	[1350 1830  405  675]
635.329	6.0	3438405	3444432	ShowFixation	VGS	98	4	False	lime	40	[ 90 570 405 675]	[1350 1830  405  675]
641.356	0.2	3444432	3444671	BlankScreen	VGS	98	4	False	lime	40	[ 90 570 405 675]	[1350 1830  405  675]
641.595	1.0	3444671	3445671	ELCue	VGS	98	4	False	lime	40	[ 90 570 405 675]	[1350 1830  405  675]
642.999	2.0	3446075	3448106	ShowFixation	ANTI	99	4	False	red	460	[405 885 405 675]	[1035 1515  405  675]
645.03	0.2	3448106	3448342	BlankScreen	ANTI	99	4	False	red	460	[405 885 405 675]	[1035 1515  405  675]
645.266	1.0	3448342	3449342	ELCue	ANTI	99	4	False	red	460	[405 885 405 675]	[1035 1515  405  675]
646.671	6.0	3449747	3455777	ShowFixation	ANTI	100	4	False	red	600	[ 90 570 405 675]	[1350 1830  405  675]
652.701	0.2	3455777	3456016	BlankScreen	ANTI	100	4	False	red	600	[ 90 570 405 675]	[1350 1830  405  675]
652.94	1.0	3456016	3457016	ELCue	ANTI	100	4	False	red	600	[ 90 570 405 675]	[1350 1830  405  675]
654.351	2.0	3457427	3459468	ShowFixation	ANTI	101	4	False	red	460	[405 885 405 675]	[1035 1515  405  675]
656.392	0.2	3459468	3459703	BlankScreen	ANTI	101	4	False	red	460	[405 885 405 675]	[1035 1515  405  675]
656.627	1.0	3459703	3460703	ELCue	ANTI	101	4	False	red	460	[405 885 405 675]	[1035 1515  405  675]
658.038	6.0	3461114	3467155	ShowFixation	VGS	102	4	False	lime	40	[ 90 570 405 675]	[1350 1830  405  675]
664.079	0.2	3467155	3467394	BlankScreen	VGS	102	4	False	lime	40	[ 90 570 405 675]	[1350 1830  405  675]
664.318	1.0	3467394	3468394	ELCue	VGS	102	4	False	lime	40	[ 90 570 405 675]	[1350 1830  405  675]
665.729	6.0	3468805	3474846	ShowFixation	ANTI	103	4	False	red	180	[1035 1515  405  675]	[405 885 405 675]
671.77	0.2	3474846	3475085	BlankScreen	ANTI	103	4	False	red	180	[1035 1515  405  675]	[405 885 405 675]
672.009	1.0	3475085	3476085	ELCue	ANTI	103	4	False	red	180	[1035 1515  405  675]	[405 885 405 675]
673.414	6.0	3476490	3482520	ShowFixation	ANTI	104	4	False	red	40	[1350 1830  405  675]	[ 90 570 405 675]
679.444	0.2	3482520	3482759	BlankScreen	ANTI	104	4	False	red	40	[1350 1830  405  675]	[ 90 570 405 675]
679.683	1.0	3482759	3483759	ELCue	ANTI	104	4	False	red	40	[1350 1830  405  675]	[ 90 570 405 675]
681.088	6.0	3484164	3490194	ShowFixation	VGS	105	4	False	lime	180	[405 885 405 675]	[1035 1515  405  675]
687.118	0.2	3490194	3490433	BlankScreen	VGS	105	4	False	lime	180	[405 885 405 675]	[1035 1515  405  675]
687.357	1.0	3490433	3491433	ELCue	VGS	105	4	False	lime	180	[405 885 405 675]	[1035 1515  405  675]
688.766	6.0	3491842	3497868	ShowFixation	ANTI	106	4	False	red	180	[1035 1515  405  675]	[405 885 405 675]
694.792	0.2	3497868	3498108	BlankScreen	ANTI	106	4	False	red	180	[1035 1515  405  675]	[405 885 405 675]
695.032	1.0	3498108	3499108	ELCue	ANTI	106	4	False	red	180	[1035 1515  405  675]	[405 885 405 675]
696.435	2.0	3499511	3501542	ShowFixation	ANTI	107	4	False	red	40	[1350 1830  405  675]	[ 90 570 405 675]
698.466	0.2	3501542	3501778	BlankScreen	ANTI	107	4	False	red	40	[1350 1830  405  675]	[ 90 570 405 675]
698.702	1.0	3501778	3502778	ELCue	ANTI	107	4	False	red	40	[1350 1830  405  675]	[ 90 570 405 675]
700.109	6.0	3503185	3509213	ShowFixation	ANTI	108	4	False	red	600	[ 90 570 405 675]	[1350 1830  405  675]
706.137	0.2	3509213	3509452	BlankScreen	ANTI	108	4	False	red	600	[ 90 570 405 675]	[1350 1830  405  675]
706.376	1.0	3509452	3510452	ELCue	ANTI	108	4	False	red	600	[ 90 570 405 675]	[1350 1830  405  675]
707.778	2.0	3510854	3512887	ShowFixation	VGS	109	4	False	lime	40	[ 90 570 405 675]	[1350 1830  405  675]
709.811	0.2	3512887	3513122	BlankScreen	VGS	109	4	False	lime	40	[ 90 570 405 675]	[1350 1830  405  675]
710.046	1.0	3513122	3514122	ELCue	VGS	109	4	False	lime	40	[ 90 570 405 675]	[1350 1830  405  675]
711.457	2.0	3514533	3516557	ShowFixation	VGS	110	4	False	lime	40	[ 90 570 405 675]	[1350 1830  405  675]
713.481	0.2	3516557	3516793	BlankScreen	VGS	110	4	False	lime	40	[ 90 570 405 675]	[1350 1830  405  675]
713.717	1.0	3516793	3517793	ELCue	VGS	110	4	False	lime	40	[ 90 570 405 675]	[1350 1830  405  675]
715.128	2.0	3518204	3520244	ShowFixation	ANTI	111	4	False	red	180	[1035 1515  405  675]	[405 885 405 675]
717.169	0.2	3520245	3520480	BlankScreen	ANTI	111	4	False	red	180	[1035 1515  405  675]	[405 885 405 675]
717.404	1.0	3520480	3521480	ELCue	ANTI	111	4	False	red	180	[1035 1515  405  675]	[405 885 405 675]
718.812	2.0	3521888	3523915	ShowFixation	ANTI	112	4	False	red	180	[1035 1515  405  675]	[405 885 405 675]
720.84	0.2	3523916	3524150	BlankScreen	ANTI	112	4	False	red	180	[1035 1515  405  675]	[405 885 405 675]
721.075	1.0	3524151	3525151	ELCue	ANTI	112	4	False	red	180	[1035 1515  405  675]	[405 885 405 675]
