onset	duration	startTime	stopTime	eventIdentifier	trial_type	trial_number	block_number	is_practice	fixation_color	cue_side	aoi_correct	aoi_incorrect
0.152	6.0	678088	684125	ShowFixation	VGS	1	1	True	lime	180	[405 885 405 675]	[1035 1515  405  675]
6.189	0.2	684125	684364	BlankScreen	VGS	1	1	True	lime	180	[405 885 405 675]	[1035 1515  405  675]
6.428	1.0	684364	685405	ELCue	VGS	1	1	True	lime	180	[405 885 405 675]	[1035 1515  405  675]
7.884	2.0	685820	688450	ShowFixation	VGS	2	1	True	lime	600	[1350 1830  405  675]	[ 90 570 405 675]
10.514	0.2	688450	688685	BlankScreen	VGS	2	1	True	lime	600	[1350 1830  405  675]	[ 90 570 405 675]
10.749	1.0	688685	689726	ELCue	VGS	2	1	True	lime	600	[1350 1830  405  675]	[ 90 570 405 675]
12.214	2.0	690150	692754	ShowFixation	ANTI	3	1	True	red	40	[1350 1830  405  675]	[ 90 570 405 675]
14.818	0.2	692754	692973	BlankScreen	ANTI	3	1	True	red	40	[1350 1830  405  675]	[ 90 570 405 675]
15.037	1.0	692973	693997	ELCue	ANTI	3	1	True	red	40	[1350 1830  405  675]	[ 90 570 405 675]
16.474	2.0	694410	697042	ShowFixation	VGS	4	1	True	lime	180	[405 885 405 675]	[1035 1515  405  675]
19.106	0.2	697042	697277	BlankScreen	VGS	4	1	True	lime	180	[405 885 405 675]	[1035 1515  405  675]
19.341	1.0	697277	698318	ELCue	VGS	4	1	True	lime	180	[405 885 405 675]	[1035 1515  405  675]
20.803	6.0	698739	705363	ShowFixation	ANTI	5	1	True	red	460	[405 885 405 675]	[1035 1515  405  675]
27.427	0.2	705363	705602	BlankScreen	ANTI	5	1	True	red	460	[405 885 405 675]	[1035 1515  405  675]
27.667	1.0	705603	706642	ELCue	ANTI	5	1	True	red	460	[405 885 405 675]	[1035 1515  405  675]
29.124	6.0	707060	713672	ShowFixation	ANTI	6	1	True	red	600	[ 90 570 405 675]	[1350 1830  405  675]
35.736	0.2	713672	713911	BlankScreen	ANTI	6	1	True	red	600	[ 90 570 405 675]	[1350 1830  405  675]
35.975	1.0	713911	714948	ELCue	ANTI	6	1	True	red	600	[ 90 570 405 675]	[1350 1830  405  675]
37.417	6.0	715353	721963	ShowFixation	ANTI	7	1	True	red	40	[1350 1830  405  675]	[ 90 570 405 675]
44.027	0.2	721963	722203	BlankScreen	ANTI	7	1	True	red	40	[1350 1830  405  675]	[ 90 570 405 675]
44.267	1.0	722203	723242	ELCue	ANTI	7	1	True	red	40	[1350 1830  405  675]	[ 90 570 405 675]
45.724	6.0	723660	730271	ShowFixation	VGS	8	1	True	lime	460	[1035 1515  405  675]	[405 885 405 675]
52.335	0.2	730271	730511	BlankScreen	VGS	8	1	True	lime	460	[1035 1515  405  675]	[405 885 405 675]
52.575	1.0	730511	731551	ELCue	VGS	8	1	True	lime	460	[1035 1515  405  675]	[405 885 405 675]
54.029	2.0	731965	734596	ShowFixation	VGS	9	1	True	lime	40	[ 90 570 405 675]	[1350 1830  405  675]
56.66	0.2	734596	734832	BlankScreen	VGS	9	1	True	lime	40	[ 90 570 405 675]	[1350 1830  405  675]
56.896	1.0	734832	735872	ELCue	VGS	9	1	True	lime	40	[ 90 570 405 675]	[1350 1830  405  675]
58.352	6.0	736288	742917	ShowFixation	VGS	10	1	True	lime	600	[1350 1830  405  675]	[ 90 570 405 675]
64.981	0.2	742917	743157	BlankScreen	VGS	10	1	True	lime	600	[1350 1830  405  675]	[ 90 570 405 675]
65.221	1.0	743157	744198	ELCue	VGS	10	1	True	lime	600	[1350 1830  405  675]	[ 90 570 405 675]
66.677	6.0	744613	751242	ShowFixation	ANTI	11	1	True	red	180	[1035 1515  405  675]	[405 885 405 675]
73.306	0.2	751242	751481	BlankScreen	ANTI	11	1	True	red	180	[1035 1515  405  675]	[405 885 405 675]
73.545	1.0	751481	752522	ELCue	ANTI	11	1	True	red	180	[1035 1515  405  675]	[405 885 405 675]
75.006	2.0	752942	755567	ShowFixation	ANTI	12	1	True	red	600	[ 90 570 405 675]	[1350 1830  405  675]
77.631	0.2	755567	755802	BlankScreen	ANTI	12	1	True	red	600	[ 90 570 405 675]	[1350 1830  405  675]
77.866	1.0	755802	756839	ELCue	ANTI	12	1	True	red	600	[ 90 570 405 675]	[1350 1830  405  675]
79.322	2.0	757258	759888	ShowFixation	VGS	13	1	True	lime	460	[1035 1515  405  675]	[405 885 405 675]
81.952	0.2	759888	760123	BlankScreen	VGS	13	1	True	lime	460	[1035 1515  405  675]	[405 885 405 675]
82.187	1.0	760123	761164	ELCue	VGS	13	1	True	lime	460	[1035 1515  405  675]	[405 885 405 675]
83.641	6.0	761577	768209	ShowFixation	VGS	14	1	True	lime	40	[ 90 570 405 675]	[1350 1830  405  675]
90.273	0.2	768209	768448	BlankScreen	VGS	14	1	True	lime	40	[ 90 570 405 675]	[1350 1830  405  675]
90.512	1.0	768448	769489	ELCue	VGS	14	1	True	lime	40	[ 90 570 405 675]	[1350 1830  405  675]
91.949	2.0	769885	772534	ShowFixation	ANTI	15	1	True	red	180	[1035 1515  405  675]	[405 885 405 675]
94.598	0.2	772534	772769	BlankScreen	ANTI	15	1	True	red	180	[1035 1515  405  675]	[405 885 405 675]
94.833	1.0	772769	773809	ELCue	ANTI	15	1	True	red	180	[1035 1515  405  675]	[405 885 405 675]
96.288	2.0	774224	776838	ShowFixation	ANTI	16	1	True	red	460	[405 885 405 675]	[1035 1515  405  675]
98.902	0.2	776838	777057	BlankScreen	ANTI	16	1	True	red	460	[405 885 405 675]	[1035 1515  405  675]
99.121	1.0	777057	778080	ELCue	ANTI	16	1	True	red	460	[405 885 405 675]	[1035 1515  405  675]
135.908	2.0	813844	815876	ShowFixation	VGS	17	2	False	lime	600	[1350 1830  405  675]	[ 90 570 405 675]
137.94	0.2	815876	816112	BlankScreen	VGS	17	2	False	lime	600	[1350 1830  405  675]	[ 90 570 405 675]
138.176	1.0	816112	817112	ELCue	VGS	17	2	False	lime	600	[1350 1830  405  675]	[ 90 570 405 675]
139.602	6.0	817538	823563	ShowFixation	VGS	18	2	False	lime	460	[1035 1515  405  675]	[405 885 405 675]
145.628	0.2	823564	823803	BlankScreen	VGS	18	2	False	lime	460	[1035 1515  405  675]	[405 885 405 675]
145.867	1.0	823803	824803	ELCue	VGS	18	2	False	lime	460	[1035 1515  405  675]	[405 885 405 675]
147.288	2.0	825224	827255	ShowFixation	VGS	19	2	False	lime	40	[ 90 570 405 675]	[1350 1830  405  675]
149.319	0.2	827255	827491	BlankScreen	VGS	19	2	False	lime	40	[ 90 570 405 675]	[1350 1830  405  675]
149.555	1.0	827491	828491	ELCue	VGS	19	2	False	lime	40	[ 90 570 405 675]	[1350 1830  405  675]
150.972	6.0	828908	834942	ShowFixation	ANTI	20	2	False	red	180	[1035 1515  405  675]	[405 885 405 675]
157.006	0.2	834942	835182	BlankScreen	ANTI	20	2	False	red	180	[1035 1515  405  675]	[405 885 405 675]
157.246	1.0	835182	836182	ELCue	ANTI	20	2	False	red	180	[1035 1515  405  675]	[405 885 405 675]
158.666	2.0	836602	838633	ShowFixation	ANTI	21	2	False	red	180	[1035 1515  405  675]	[405 885 405 675]
160.697	0.2	838633	838869	BlankScreen	ANTI	21	2	False	red	180	[1035 1515  405  675]	[405 885 405 675]
160.933	1.0	838869	839869	ELCue	ANTI	21	2	False	red	180	[1035 1515  405  675]	[405 885 405 675]
162.348	6.0	840284	846320	ShowFixation	ANTI	22	2	False	red	600	[ 90 570 405 675]	[1350 1830  405  675]
168.384	0.2	846320	846560	BlankScreen	ANTI	22	2	False	red	600	[ 90 570 405 675]	[1350 1830  405  675]
168.624	1.0	846560	847560	ELCue	ANTI	22	2	False	red	600	[ 90 570 405 675]	[1350 1830  405  675]
170.046	2.0	847982	850011	ShowFixation	ANTI	23	2	False	red	600	[ 90 570 405 675]	[1350 1830  405  675]
172.075	0.2	850011	850247	BlankScreen	ANTI	23	2	False	red	600	[ 90 570 405 675]	[1350 1830  405  675]
172.311	1.0	850247	851247	ELCue	ANTI	23	2	False	red	600	[ 90 570 405 675]	[1350 1830  405  675]
173.73	6.0	851666	857698	ShowFixation	VGS	24	2	False	lime	600	[1350 1830  405  675]	[ 90 570 405 675]
179.762	0.2	857698	857937	BlankScreen	VGS	24	2	False	lime	600	[1350 1830  405  675]	[ 90 570 405 675]
180.001	1.0	857937	858937	ELCue	VGS	24	2	False	lime	600	[1350 1830  405  675]	[ 90 570 405 675]
181.422	2.0	859358	861389	ShowFixation	VGS	25	2	False	lime	460	[1035 1515  405  675]	[405 885 405 675]
183.453	0.2	861389	861624	BlankScreen	VGS	25	2	False	lime	460	[1035 1515  405  675]	[405 885 405 675]
183.688	1.0	861624	862624	ELCue	VGS	25	2	False	lime	460	[1035 1515  405  675]	[405 885 405 675]
185.111	6.0	863047	869076	ShowFixation	VGS	26	2	False	lime	460	[1035 1515  405  675]	[405 885 405 675]
191.14	0.2	869076	869315	BlankScreen	VGS	26	2	False	lime	460	[1035 1515  405  675]	[405 885 405 675]
191.379	1.0	869315	870315	ELCue	VGS	26	2	False	lime	460	[1035 1515  405  675]	[405 885 405 675]
192.8	6.0	870736	876767	ShowFixation	ANTI	27	2	False	red	40	[1350 1830  405  675]	[ 90 570 405 675]
198.831	0.2	876767	877006	BlankScreen	ANTI	27	2	False	red	40	[1350 1830  405  675]	[ 90 570 405 675]
199.07	1.0	877006	878006	ELCue	ANTI	27	2	False	red	40	[1350 1830  405  675]	[ 90 570 405 675]
200.493	2.0	878429	880458	ShowFixation	ANTI	28	2	False	red	40	[1350 1830  405  675]	[ 90 570 405 675]
202.522	0.2	880458	880693	BlankScreen	ANTI	28	2	False	red	40	[1350 1830  405  675]	[ 90 570 405 675]
202.757	1.0	880693	881693	ELCue	ANTI	28	2	False	red	40	[1350 1830  405  675]	[ 90 570 405 675]
204.178	2.0	882114	884145	ShowFixation	ANTI	29	2	False	red	40	[1350 1830  405  675]	[ 90 570 405 675]
206.209	0.2	884145	884380	BlankScreen	ANTI	29	2	False	red	40	[1350 1830  405  675]	[ 90 570 405 675]
206.444	1.0	884380	885380	ELCue	ANTI	29	2	False	red	40	[1350 1830  405  675]	[ 90 570 405 675]
207.863	2.0	885799	887832	ShowFixation	VGS	30	2	False	lime	460	[1035 1515  405  675]	[405 885 405 675]
209.896	0.2	887832	888067	BlankScreen	VGS	30	2	False	lime	460	[1035 1515  405  675]	[405 885 405 675]
210.131	1.0	888067	889067	ELCue	VGS	30	2	False	lime	460	[1035 1515  405  675]	[405 885 405 675]
211.552	6.0	889488	895519	ShowFixation	VGS	31	2	False	lime	180	[405 885 405 675]	[1035 1515  405  675]
217.583	0.2	895519	895758	BlankScreen	VGS	31	2	False	lime	180	[405 885 405 675]	[1035 1515  405  675]
217.822	1.0	895758	896758	ELCue	VGS	31	2	False	lime	180	[405 885 405 675]	[1035 1515  405  675]
219.248	2.0	897184	899210	ShowFixation	VGS	32	2	False	lime	180	[405 885 405 675]	[1035 1515  405  675]
221.274	0.2	899210	899445	BlankScreen	VGS	32	2	False	lime	180	[405 885 405 675]	[1035 1515  405  675]
221.509	1.0	899445	900445	ELCue	VGS	32	2	False	lime	180	[405 885 405 675]	[1035 1515  405  675]
222.932	6.0	900868	906897	ShowFixation	ANTI	33	2	False	red	180	[1035 1515  405  675]	[405 885 405 675]
228.961	0.2	906897	907136	BlankScreen	ANTI	33	2	False	red	180	[1035 1515  405  675]	[405 885 405 675]
229.2	1.0	907136	908136	ELCue	ANTI	33	2	False	red	180	[1035 1515  405  675]	[405 885 405 675]
230.622	2.0	908558	910588	ShowFixation	ANTI	34	2	False	red	600	[ 90 570 405 675]	[1350 1830  405  675]
232.652	0.2	910588	910823	BlankScreen	ANTI	34	2	False	red	600	[ 90 570 405 675]	[1350 1830  405  675]
232.887	1.0	910823	911823	ELCue	ANTI	34	2	False	red	600	[ 90 570 405 675]	[1350 1830  405  675]
234.305	2.0	912241	914275	ShowFixation	VGS	35	2	False	lime	180	[405 885 405 675]	[1035 1515  405  675]
236.339	0.2	914275	914510	BlankScreen	VGS	35	2	False	lime	180	[405 885 405 675]	[1035 1515  405  675]
236.574	1.0	914510	915510	ELCue	VGS	35	2	False	lime	180	[405 885 405 675]	[1035 1515  405  675]
237.996	6.0	915932	921961	ShowFixation	ANTI	36	2	False	red	460	[405 885 405 675]	[1035 1515  405  675]
244.025	0.2	921961	922201	BlankScreen	ANTI	36	2	False	red	460	[405 885 405 675]	[1035 1515  405  675]
244.265	1.0	922201	923201	ELCue	ANTI	36	2	False	red	460	[405 885 405 675]	[1035 1515  405  675]
245.686	2.0	923622	925652	ShowFixation	ANTI	37	2	False	red	460	[405 885 405 675]	[1035 1515  405  675]
247.716	0.2	925652	925888	BlankScreen	ANTI	37	2	False	red	460	[405 885 405 675]	[1035 1515  405  675]
247.952	1.0	925888	926888	ELCue	ANTI	37	2	False	red	460	[405 885 405 675]	[1035 1515  405  675]
249.376	2.0	927312	929339	ShowFixation	VGS	38	2	False	lime	40	[ 90 570 405 675]	[1350 1830  405  675]
251.403	0.2	929339	929575	BlankScreen	VGS	38	2	False	lime	40	[ 90 570 405 675]	[1350 1830  405  675]
251.639	1.0	929575	930575	ELCue	VGS	38	2	False	lime	40	[ 90 570 405 675]	[1350 1830  405  675]
253.056	6.0	930992	937026	ShowFixation	VGS	39	2	False	lime	40	[ 90 570 405 675]	[1350 1830  405  675]
259.091	0.2	937027	937266	BlankScreen	VGS	39	2	False	lime	40	[ 90 570 405 675]	[1350 1830  405  675]
259.33	1.0	937266	938266	ELCue	VGS	39	2	False	lime	40	[ 90 570 405 675]	[1350 1830  405  675]
260.752	6.0	938688	944717	ShowFixation	ANTI	40	2	False	red	460	[405 885 405 675]	[1035 1515  405  675]
266.782	0.2	944718	944958	BlankScreen	ANTI	40	2	False	red	460	[405 885 405 675]	[1035 1515  405  675]
267.022	1.0	944958	945958	ELCue	ANTI	40	2	False	red	460	[405 885 405 675]	[1035 1515  405  675]
268.438	6.0	946374	952409	ShowFixation	VGS	41	2	False	lime	180	[405 885 405 675]	[1035 1515  405  675]
274.473	0.2	952409	952648	BlankScreen	VGS	41	2	False	lime	180	[405 885 405 675]	[1035 1515  405  675]
274.712	1.0	952648	953648	ELCue	VGS	41	2	False	lime	180	[405 885 405 675]	[1035 1515  405  675]
276.135	2.0	954071	956100	ShowFixation	ANTI	42	2	False	red	180	[1035 1515  405  675]	[405 885 405 675]
278.164	0.2	956100	956335	BlankScreen	ANTI	42	2	False	red	180	[1035 1515  405  675]	[405 885 405 675]
278.399	1.0	956335	957335	ELCue	ANTI	42	2	False	red	180	[1035 1515  405  675]	[405 885 405 675]
279.817	6.0	957753	963787	ShowFixation	ANTI	43	2	False	red	40	[1350 1830  405  675]	[ 90 570 405 675]
285.851	0.2	963787	964026	BlankScreen	ANTI	43	2	False	red	40	[1350 1830  405  675]	[ 90 570 405 675]
286.09	1.0	964026	965026	ELCue	ANTI	43	2	False	red	40	[1350 1830  405  675]	[ 90 570 405 675]
287.512	2.0	965448	967478	ShowFixation	VGS	44	2	False	lime	600	[1350 1830  405  675]	[ 90 570 405 675]
289.542	0.2	967478	967713	BlankScreen	VGS	44	2	False	lime	600	[1350 1830  405  675]	[ 90 570 405 675]
289.777	1.0	967713	968713	ELCue	VGS	44	2	False	lime	600	[1350 1830  405  675]	[ 90 570 405 675]
291.196	6.0	969132	975165	ShowFixation	VGS	45	2	False	lime	40	[ 90 570 405 675]	[1350 1830  405  675]
297.229	0.2	975165	975404	BlankScreen	VGS	45	2	False	lime	40	[ 90 570 405 675]	[1350 1830  405  675]
297.468	1.0	975404	976404	ELCue	VGS	45	2	False	lime	40	[ 90 570 405 675]	[1350 1830  405  675]
298.891	6.0	976827	982856	ShowFixation	VGS	46	2	False	lime	600	[1350 1830  405  675]	[ 90 570 405 675]
304.92	0.2	982856	983095	BlankScreen	VGS	46	2	False	lime	600	[1350 1830  405  675]	[ 90 570 405 675]
305.159	1.0	983095	984095	ELCue	VGS	46	2	False	lime	600	[1350 1830  405  675]	[ 90 570 405 675]
306.577	6.0	984513	990547	ShowFixation	ANTI	47	2	False	red	600	[ 90 570 405 675]	[1350 1830  405  675]
312.611	0.2	990547	990786	BlankScreen	ANTI	47	2	False	red	600	[ 90 570 405 675]	[1350 1830  405  675]
312.85	1.0	990786	991786	ELCue	ANTI	47	2	False	red	600	[ 90 570 405 675]	[1350 1830  405  675]
314.28	2.0	992216	994254	ShowFixation	ANTI	48	2	False	red	460	[405 885 405 675]	[1035 1515  405  675]
316.318	0.2	994254	994490	BlankScreen	ANTI	48	2	False	red	460	[405 885 405 675]	[1035 1515  405  675]
316.554	1.0	994490	995490	ELCue	ANTI	48	2	False	red	460	[405 885 405 675]	[1035 1515  405  675]
343.48	6.0	1021416	1027450	ShowFixation	ANTI	49	3	False	red	460	[405 885 405 675]	[1035 1515  405  675]
349.514	0.2	1027450	1027689	BlankScreen	ANTI	49	3	False	red	460	[405 885 405 675]	[1035 1515  405  675]
349.753	1.0	1027689	1028689	ELCue	ANTI	49	3	False	red	460	[405 885 405 675]	[1035 1515  405  675]
351.177	2.0	1029113	1031141	ShowFixation	ANTI	50	3	False	red	40	[1350 1830  405  675]	[ 90 570 405 675]
353.205	0.2	1031141	1031376	BlankScreen	ANTI	50	3	False	red	40	[1350 1830  405  675]	[ 90 570 405 675]
353.44	1.0	1031376	1032376	ELCue	ANTI	50	3	False	red	40	[1350 1830  405  675]	[ 90 570 405 675]
354.864	6.0	1032800	1038828	ShowFixation	VGS	51	3	False	lime	600	[1350 1830  405  675]	[ 90 570 405 675]
360.892	0.2	1038828	1039067	BlankScreen	VGS	51	3	False	lime	600	[1350 1830  405  675]	[ 90 570 405 675]
361.131	1.0	1039067	1040067	ELCue	VGS	51	3	False	lime	600	[1350 1830  405  675]	[ 90 570 405 675]
362.55	2.0	1040486	1042519	ShowFixation	VGS	52	3	False	lime	40	[ 90 570 405 675]	[1350 1830  405  675]
364.583	0.2	1042519	1042754	BlankScreen	VGS	52	3	False	lime	40	[ 90 570 405 675]	[1350 1830  405  675]
364.818	1.0	1042754	1043754	ELCue	VGS	52	3	False	lime	40	[ 90 570 405 675]	[1350 1830  405  675]
366.24	2.0	1044176	1046206	ShowFixation	ANTI	53	3	False	red	460	[405 885 405 675]	[1035 1515  405  675]
368.27	0.2	1046206	1046441	BlankScreen	ANTI	53	3	False	red	460	[405 885 405 675]	[1035 1515  405  675]
368.505	1.0	1046441	1047441	ELCue	ANTI	53	3	False	red	460	[405 885 405 675]	[1035 1515  405  675]
369.932	6.0	1047868	1053893	ShowFixation	VGS	54	3	False	lime	180	[405 885 405 675]	[1035 1515  405  675]
375.957	0.2	1053893	1054132	BlankScreen	VGS	54	3	False	lime	180	[405 885 405 675]	[1035 1515  405  675]
376.196	1.0	1054132	1055132	ELCue	VGS	54	3	False	lime	180	[405 885 405 675]	[1035 1515  405  675]
377.616	2.0	1055552	1057585	ShowFixation	VGS	55	3	False	lime	600	[1350 1830  405  675]	[ 90 570 405 675]
379.649	0.2	1057585	1057819	BlankScreen	VGS	55	3	False	lime	600	[1350 1830  405  675]	[ 90 570 405 675]
379.883	1.0	1057819	1058819	ELCue	VGS	55	3	False	lime	600	[1350 1830  405  675]	[ 90 570 405 675]
381.305	6.0	1059241	1065271	ShowFixation	VGS	56	3	False	lime	460	[1035 1515  405  675]	[405 885 405 675]
387.335	0.2	1065271	1065511	BlankScreen	VGS	56	3	False	lime	460	[1035 1515  405  675]	[405 885 405 675]
387.575	1.0	1065511	1066511	ELCue	VGS	56	3	False	lime	460	[1035 1515  405  675]	[405 885 405 675]
388.997	6.0	1066933	1072962	ShowFixation	ANTI	57	3	False	red	600	[ 90 570 405 675]	[1350 1830  405  675]
395.026	0.2	1072962	1073202	BlankScreen	ANTI	57	3	False	red	600	[ 90 570 405 675]	[1350 1830  405  675]
395.266	1.0	1073202	1074202	ELCue	ANTI	57	3	False	red	600	[ 90 570 405 675]	[1350 1830  405  675]
396.685	2.0	1074621	1076653	ShowFixation	VGS	58	3	False	lime	180	[405 885 405 675]	[1035 1515  405  675]
398.717	0.2	1076653	1076889	BlankScreen	VGS	58	3	False	lime	180	[405 885 405 675]	[1035 1515  405  675]
398.953	1.0	1076889	1077889	ELCue	VGS	58	3	False	lime	180	[405 885 405 675]	[1035 1515  405  675]
400.375	6.0	1078311	1084340	ShowFixation	ANTI	59	3	False	red	180	[1035 1515  405  675]	[405 885 405 675]
406.404	0.2	1084340	1084580	BlankScreen	ANTI	59	3	False	red	180	[1035 1515  405  675]	[405 885 405 675]
406.644	1.0	1084580	1085580	ELCue	ANTI	59	3	False	red	180	[1035 1515  405  675]	[405 885 405 675]
408.061	6.0	1085997	1092031	ShowFixation	VGS	60	3	False	lime	180	[405 885 405 675]	[1035 1515  405  675]
414.095	0.2	1092031	1092270	BlankScreen	VGS	60	3	False	lime	180	[405 885 405 675]	[1035 1515  405  675]
414.334	1.0	1092270	1093270	ELCue	VGS	60	3	False	lime	180	[405 885 405 675]	[1035 1515  405  675]
415.753	2.0	1093689	1095722	ShowFixation	ANTI	61	3	False	red	600	[ 90 570 405 675]	[1350 1830  405  675]
417.786	0.2	1095722	1095957	BlankScreen	ANTI	61	3	False	red	600	[ 90 570 405 675]	[1350 1830  405  675]
418.021	1.0	1095957	1096957	ELCue	ANTI	61	3	False	red	600	[ 90 570 405 675]	[1350 1830  405  675]
419.439	6.0	1097375	1103409	ShowFixation	VGS	62	3	False	lime	40	[ 90 570 405 675]	[1350 1830  405  675]
425.473	0.2	1103409	1103648	BlankScreen	VGS	62	3	False	lime	40	[ 90 570 405 675]	[1350 1830  405  675]
425.712	1.0	1103648	1104648	ELCue	VGS	62	3	False	lime	40	[ 90 570 405 675]	[1350 1830  405  675]
427.096	2.0	1105032	1107067	ShowFixation	VGS	63	3	False	lime	40	[ 90 570 405 675]	[1350 1830  405  675]
429.131	0.2	1107067	1107302	BlankScreen	VGS	63	3	False	lime	40	[ 90 570 405 675]	[1350 1830  405  675]
429.366	1.0	1107302	1108302	ELCue	VGS	63	3	False	lime	40	[ 90 570 405 675]	[1350 1830  405  675]
430.787	6.0	1108723	1114754	ShowFixation	ANTI	64	3	False	red	40	[1350 1830  405  675]	[ 90 570 405 675]
436.818	0.2	1114754	1114993	BlankScreen	ANTI	64	3	False	red	40	[1350 1830  405  675]	[ 90 570 405 675]
437.057	1.0	1114993	1115993	ELCue	ANTI	64	3	False	red	40	[1350 1830  405  675]	[ 90 570 405 675]
438.474	2.0	1116410	1118445	ShowFixation	VGS	65	3	False	lime	460	[1035 1515  405  675]	[405 885 405 675]
440.509	0.2	1118445	1118680	BlankScreen	VGS	65	3	False	lime	460	[1035 1515  405  675]	[405 885 405 675]
440.744	1.0	1118680	1119680	ELCue	VGS	65	3	False	lime	460	[1035 1515  405  675]	[405 885 405 675]
442.167	6.0	1120103	1126131	ShowFixation	VGS	66	3	False	lime	40	[ 90 570 405 675]	[1350 1830  405  675]
448.195	0.2	1126131	1126371	BlankScreen	VGS	66	3	False	lime	40	[ 90 570 405 675]	[1350 1830  405  675]
448.435	1.0	1126371	1127371	ELCue	VGS	66	3	False	lime	40	[ 90 570 405 675]	[1350 1830  405  675]
449.854	2.0	1127790	1129822	ShowFixation	VGS	67	3	False	lime	180	[405 885 405 675]	[1035 1515  405  675]
451.886	0.2	1129822	1130058	BlankScreen	VGS	67	3	False	lime	180	[405 885 405 675]	[1035 1515  405  675]
452.122	1.0	1130058	1131058	ELCue	VGS	67	3	False	lime	180	[405 885 405 675]	[1035 1515  405  675]
453.669	6.0	1131605	1137643	ShowFixation	ANTI	68	3	False	red	180	[1035 1515  405  675]	[405 885 405 675]
459.707	0.2	1137643	1137882	BlankScreen	ANTI	68	3	False	red	180	[1035 1515  405  675]	[405 885 405 675]
459.946	1.0	1137882	1138882	ELCue	ANTI	68	3	False	red	180	[1035 1515  405  675]	[405 885 405 675]
461.338	2.0	1139274	1141300	ShowFixation	ANTI	69	3	False	red	180	[1035 1515  405  675]	[405 885 405 675]
463.364	0.2	1141300	1141536	BlankScreen	ANTI	69	3	False	red	180	[1035 1515  405  675]	[405 885 405 675]
463.6	1.0	1141536	1142536	ELCue	ANTI	69	3	False	red	180	[1035 1515  405  675]	[405 885 405 675]
465.018	6.0	1142954	1148987	ShowFixation	ANTI	70	3	False	red	600	[ 90 570 405 675]	[1350 1830  405  675]
471.051	0.2	1148987	1149227	BlankScreen	ANTI	70	3	False	red	600	[ 90 570 405 675]	[1350 1830  405  675]
471.291	1.0	1149227	1150227	ELCue	ANTI	70	3	False	red	600	[ 90 570 405 675]	[1350 1830  405  675]
472.709	2.0	1150645	1152678	ShowFixation	ANTI	71	3	False	red	460	[405 885 405 675]	[1035 1515  405  675]
474.742	0.2	1152678	1152914	BlankScreen	ANTI	71	3	False	red	460	[405 885 405 675]	[1035 1515  405  675]
474.978	1.0	1152914	1153914	ELCue	ANTI	71	3	False	red	460	[405 885 405 675]	[1035 1515  405  675]
476.402	6.0	1154338	1160365	ShowFixation	VGS	72	3	False	lime	460	[1035 1515  405  675]	[405 885 405 675]
482.429	0.2	1160365	1160605	BlankScreen	VGS	72	3	False	lime	460	[1035 1515  405  675]	[405 885 405 675]
482.669	1.0	1160605	1161605	ELCue	VGS	72	3	False	lime	460	[1035 1515  405  675]	[405 885 405 675]
484.092	6.0	1162028	1168056	ShowFixation	VGS	73	3	False	lime	600	[1350 1830  405  675]	[ 90 570 405 675]
490.121	0.2	1168057	1168295	BlankScreen	VGS	73	3	False	lime	600	[1350 1830  405  675]	[ 90 570 405 675]
490.359	1.0	1168295	1169295	ELCue	VGS	73	3	False	lime	600	[1350 1830  405  675]	[ 90 570 405 675]
491.782	2.0	1169718	1171747	ShowFixation	VGS	74	3	False	lime	460	[1035 1515  405  675]	[405 885 405 675]
493.811	0.2	1171747	1171982	BlankScreen	VGS	74	3	False	lime	460	[1035 1515  405  675]	[405 885 405 675]
494.047	1.0	1171983	1172983	ELCue	VGS	74	3	False	lime	460	[1035 1515  405  675]	[405 885 405 675]
495.535	2.0	1173471	1175501	ShowFixation	ANTI	75	3	False	red	180	[1035 1515  405  675]	[405 885 405 675]
497.566	0.2	1175502	1175737	BlankScreen	ANTI	75	3	False	red	180	[1035 1515  405  675]	[405 885 405 675]
497.801	1.0	1175737	1176737	ELCue	ANTI	75	3	False	red	180	[1035 1515  405  675]	[405 885 405 675]
499.221	2.0	1177157	1179189	ShowFixation	ANTI	76	3	False	red	40	[1350 1830  405  675]	[ 90 570 405 675]
501.253	0.2	1179189	1179424	BlankScreen	ANTI	76	3	False	red	40	[1350 1830  405  675]	[ 90 570 405 675]
501.488	1.0	1179424	1180424	ELCue	ANTI	76	3	False	red	40	[1350 1830  405  675]	[ 90 570 405 675]
502.906	2.0	1180842	1182876	ShowFixation	ANTI	77	3	False	red	600	[ 90 570 405 675]	[1350 1830  405  675]
504.94	0.2	1182876	1183111	BlankScreen	ANTI	77	3	False	red	600	[ 90 570 405 675]	[1350 1830  405  675]
505.175	1.0	1183111	1184111	ELCue	ANTI	77	3	False	red	600	[ 90 570 405 675]	[1350 1830  405  675]
506.598	6.0	1184534	1190563	ShowFixation	ANTI	78	3	False	red	460	[405 885 405 675]	[1035 1515  405  675]
512.627	0.2	1190563	1190802	BlankScreen	ANTI	78	3	False	red	460	[405 885 405 675]	[1035 1515  405  675]
512.866	1.0	1190802	1191802	ELCue	ANTI	78	3	False	red	460	[405 885 405 675]	[1035 1515  405  675]
514.289	6.0	1192225	1198254	ShowFixation	ANTI	79	3	False	red	40	[1350 1830  405  675]	[ 90 570 405 675]
520.318	0.2	1198254	1198493	BlankScreen	ANTI	79	3	False	red	40	[1350 1830  405  675]	[ 90 570 405 675]
520.557	1.0	1198493	1199493	ELCue	ANTI	79	3	False	red	40	[1350 1830  405  675]	[ 90 570 405 675]
521.977	2.0	1199913	1201945	ShowFixation	VGS	80	3	False	lime	600	[1350 1830  405  675]	[ 90 570 405 675]
524.009	0.2	1201945	1202180	BlankScreen	VGS	80	3	False	lime	600	[1350 1830  405  675]	[ 90 570 405 675]
524.244	1.0	1202180	1203180	ELCue	VGS	80	3	False	lime	600	[1350 1830  405  675]	[ 90 570 405 675]
537.544	6.0	1215480	1221510	ShowFixation	VGS	81	4	False	lime	40	[ 90 570 405 675]	[1350 1830  405  675]
543.574	0.2	1221510	1221749	BlankScreen	VGS	81	4	False	lime	40	[ 90 570 405 675]	[1350 1830  405  675]
543.813	1.0	1221749	1222749	ELCue	VGS	81	4	False	lime	40	[ 90 570 405 675]	[1350 1830  405  675]
545.235	2.0	1223171	1225201	ShowFixation	ANTI	82	4	False	red	180	[1035 1515  405  675]	[405 885 405 675]
547.265	0.2	1225201	1225436	BlankScreen	ANTI	82	4	False	red	180	[1035 1515  405  675]	[405 885 405 675]
547.5	1.0	1225436	1226436	ELCue	ANTI	82	4	False	red	180	[1035 1515  405  675]	[405 885 405 675]
548.92	6.0	1226856	1232888	ShowFixation	ANTI	83	4	False	red	460	[405 885 405 675]	[1035 1515  405  675]
554.952	0.2	1232888	1233127	BlankScreen	ANTI	83	4	False	red	460	[405 885 405 675]	[1035 1515  405  675]
555.191	1.0	1233127	1234127	ELCue	ANTI	83	4	False	red	460	[405 885 405 675]	[1035 1515  405  675]
556.618	2.0	1234554	1236579	ShowFixation	ANTI	84	4	False	red	600	[ 90 570 405 675]	[1350 1830  405  675]
558.643	0.2	1236579	1236814	BlankScreen	ANTI	84	4	False	red	600	[ 90 570 405 675]	[1350 1830  405  675]
558.878	1.0	1236814	1237814	ELCue	ANTI	84	4	False	red	600	[ 90 570 405 675]	[1350 1830  405  675]
560.302	6.0	1238238	1244266	ShowFixation	VGS	85	4	False	lime	180	[405 885 405 675]	[1035 1515  405  675]
566.33	0.2	1244266	1244505	BlankScreen	VGS	85	4	False	lime	180	[405 885 405 675]	[1035 1515  405  675]
566.569	1.0	1244505	1245505	ELCue	VGS	85	4	False	lime	180	[405 885 405 675]	[1035 1515  405  675]
567.991	2.0	1245927	1247957	ShowFixation	ANTI	86	4	False	red	180	[1035 1515  405  675]	[405 885 405 675]
570.021	0.2	1247957	1248192	BlankScreen	ANTI	86	4	False	red	180	[1035 1515  405  675]	[405 885 405 675]
570.256	1.0	1248192	1249192	ELCue	ANTI	86	4	False	red	180	[1035 1515  405  675]	[405 885 405 675]
571.681	2.0	1249617	1251643	ShowFixation	ANTI	87	4	False	red	40	[1350 1830  405  675]	[ 90 570 405 675]
573.707	0.2	1251643	1251879	BlankScreen	ANTI	87	4	False	red	40	[1350 1830  405  675]	[ 90 570 405 675]
573.943	1.0	1251879	1252879	ELCue	ANTI	87	4	False	red	40	[1350 1830  405  675]	[ 90 570 405 675]
575.364	6.0	1253300	1259330	ShowFixation	VGS	88	4	False	lime	600	[1350 1830  405  675]	[ 90 570 405 675]
581.394	0.2	1259330	1259570	BlankScreen	VGS	88	4	False	lime	600	[1350 1830  405  675]	[ 90 570 405 675]
581.634	1.0	1259570	1260570	ELCue	VGS	88	4	False	lime	600	[1350 1830  405  675]	[ 90 570 405 675]
583.054	2.0	1260990	1263021	ShowFixation	ANTI	89	4	False	red	460	[405 885 405 675]	[1035 1515  405  675]
585.085	0.2	1263021	1263257	BlankScreen	ANTI	89	4	False	red	460	[405 885 405 675]	[1035 1515  405  675]
585.321	1.0	1263257	1264257	ELCue	ANTI	89	4	False	red	460	[405 885 405 675]	[1035 1515  405  675]
586.739	6.0	1264675	1270708	ShowFixation	ANTI	90	4	False	red	460	[405 885 405 675]	[1035 1515  405  675]
592.772	0.2	1270708	1270948	BlankScreen	ANTI	90	4	False	red	460	[405 885 405 675]	[1035 1515  405  675]
593.012	1.0	1270948	1271948	ELCue	ANTI	90	4	False	red	460	[405 885 405 675]	[1035 1515  405  675]
594.434	6.0	1272370	1278399	ShowFixation	ANTI	91	4	False	red	180	[1035 1515  405  675]	[405 885 405 675]
600.463	0.2	1278399	1278639	BlankScreen	ANTI	91	4	False	red	180	[1035 1515  405  675]	[405 885 405 675]
600.703	1.0	1278639	1279639	ELCue	ANTI	91	4	False	red	180	[1035 1515  405  675]	[405 885 405 675]
602.126	6.0	1280062	1286090	ShowFixation	VGS	92	4	False	lime	40	[ 90 570 405 675]	[1350 1830  405  675]
608.154	0.2	1286090	1286329	BlankScreen	VGS	92	4	False	lime	40	[ 90 570 405 675]	[1350 1830  405  675]
608.394	1.0	1286330	1287330	ELCue	VGS	92	4	False	lime	40	[ 90 570 405 675]	[1350 1830  405  675]
609.817	2.0	1287753	1289781	ShowFixation	VGS	93	4	False	lime	40	[ 90 570 405 675]	[1350 1830  405  675]
611.845	0.2	1289781	1290016	BlankScreen	VGS	93	4	False	lime	40	[ 90 570 405 675]	[1350 1830  405  675]
612.081	1.0	1290017	1291017	ELCue	VGS	93	4	False	lime	40	[ 90 570 405 675]	[1350 1830  405  675]
613.503	2.0	1291439	1293469	ShowFixation	VGS	94	4	False	lime	600	[1350 1830  405  675]	[ 90 570 405 675]
615.533	0.2	1293469	1293704	BlankScreen	VGS	94	4	False	lime	600	[1350 1830  405  675]	[ 90 570 405 675]
615.768	1.0	1293704	1294704	ELCue	VGS	94	4	False	lime	600	[1350 1830  405  675]	[ 90 570 405 675]
617.191	6.0	1295127	1301156	ShowFixation	VGS	95	4	False	lime	460	[1035 1515  405  675]	[405 885 405 675]
623.22	0.2	1301156	1301395	BlankScreen	VGS	95	4	False	lime	460	[1035 1515  405  675]	[405 885 405 675]
623.459	1.0	1301395	1302395	ELCue	VGS	95	4	False	lime	460	[1035 1515  405  675]	[405 885 405 675]
624.879	2.0	1302815	1304847	ShowFixation	VGS	96	4	False	lime	40	[ 90 570 405 675]	[1350 1830  405  675]
626.911	0.2	1304847	1305082	BlankScreen	VGS	96	4	False	lime	40	[ 90 570 405 675]	[1350 1830  405  675]
627.146	1.0	1305082	1306082	ELCue	VGS	96	4	False	lime	40	[ 90 570 405 675]	[1350 1830  405  675]
628.568	2.0	1306504	1308534	ShowFixation	VGS	97	4	False	lime	180	[405 885 405 675]	[1035 1515  405  675]
630.598	0.2	1308534	1308769	BlankScreen	VGS	97	4	False	lime	180	[405 885 405 675]	[1035 1515  405  675]
630.833	1.0	1308769	1309769	ELCue	VGS	97	4	False	lime	180	[405 885 405 675]	[1035 1515  405  675]
632.233	6.0	1310169	1316204	ShowFixation	VGS	98	4	False	lime	600	[1350 1830  405  675]	[ 90 570 405 675]
638.268	0.2	1316204	1316444	BlankScreen	VGS	98	4	False	lime	600	[1350 1830  405  675]	[ 90 570 405 675]
638.508	1.0	1316444	1317444	ELCue	VGS	98	4	False	lime	600	[1350 1830  405  675]	[ 90 570 405 675]
639.924	2.0	1317860	1319895	ShowFixation	VGS	99	4	False	lime	460	[1035 1515  405  675]	[405 885 405 675]
641.959	0.2	1319895	1320130	BlankScreen	VGS	99	4	False	lime	460	[1035 1515  405  675]	[405 885 405 675]
642.194	1.0	1320130	1321130	ELCue	VGS	99	4	False	lime	460	[1035 1515  405  675]	[405 885 405 675]
643.616	2.0	1321552	1323582	ShowFixation	ANTI	100	4	False	red	460	[405 885 405 675]	[1035 1515  405  675]
645.646	0.2	1323582	1323817	BlankScreen	ANTI	100	4	False	red	460	[405 885 405 675]	[1035 1515  405  675]
645.881	1.0	1323817	1324817	ELCue	ANTI	100	4	False	red	460	[405 885 405 675]	[1035 1515  405  675]
647.302	6.0	1325238	1331269	ShowFixation	ANTI	101	4	False	red	600	[ 90 570 405 675]	[1350 1830  405  675]
653.333	0.2	1331269	1331508	BlankScreen	ANTI	101	4	False	red	600	[ 90 570 405 675]	[1350 1830  405  675]
653.572	1.0	1331508	1332508	ELCue	ANTI	101	4	False	red	600	[ 90 570 405 675]	[1350 1830  405  675]
654.992	2.0	1332928	1334960	ShowFixation	VGS	102	4	False	lime	180	[405 885 405 675]	[1035 1515  405  675]
657.024	0.2	1334960	1335195	BlankScreen	VGS	102	4	False	lime	180	[405 885 405 675]	[1035 1515  405  675]
657.259	1.0	1335195	1336195	ELCue	VGS	102	4	False	lime	180	[405 885 405 675]	[1035 1515  405  675]
658.678	2.0	1336614	1338647	ShowFixation	ANTI	103	4	False	red	40	[1350 1830  405  675]	[ 90 570 405 675]
660.711	0.2	1338647	1338882	BlankScreen	ANTI	103	4	False	red	40	[1350 1830  405  675]	[ 90 570 405 675]
660.946	1.0	1338882	1339882	ELCue	ANTI	103	4	False	red	40	[1350 1830  405  675]	[ 90 570 405 675]
662.367	6.0	1340303	1346334	ShowFixation	ANTI	104	4	False	red	600	[ 90 570 405 675]	[1350 1830  405  675]
668.398	0.2	1346334	1346573	BlankScreen	ANTI	104	4	False	red	600	[ 90 570 405 675]	[1350 1830  405  675]
668.637	1.0	1346573	1347573	ELCue	ANTI	104	4	False	red	600	[ 90 570 405 675]	[1350 1830  405  675]
670.062	6.0	1347998	1354025	ShowFixation	ANTI	105	4	False	red	40	[1350 1830  405  675]	[ 90 570 405 675]
676.089	0.2	1354025	1354264	BlankScreen	ANTI	105	4	False	red	40	[1350 1830  405  675]	[ 90 570 405 675]
676.328	1.0	1354264	1355264	ELCue	ANTI	105	4	False	red	40	[1350 1830  405  675]	[ 90 570 405 675]
677.75	2.0	1355686	1357716	ShowFixation	VGS	106	4	False	lime	460	[1035 1515  405  675]	[405 885 405 675]
679.78	0.2	1357716	1357951	BlankScreen	VGS	106	4	False	lime	460	[1035 1515  405  675]	[405 885 405 675]
680.015	1.0	1357951	1358951	ELCue	VGS	106	4	False	lime	460	[1035 1515  405  675]	[405 885 405 675]
681.438	6.0	1359374	1365403	ShowFixation	VGS	107	4	False	lime	180	[405 885 405 675]	[1035 1515  405  675]
687.467	0.2	1365403	1365642	BlankScreen	VGS	107	4	False	lime	180	[405 885 405 675]	[1035 1515  405  675]
687.706	1.0	1365642	1366642	ELCue	VGS	107	4	False	lime	180	[405 885 405 675]	[1035 1515  405  675]
689.128	6.0	1367064	1373094	ShowFixation	ANTI	108	4	False	red	40	[1350 1830  405  675]	[ 90 570 405 675]
695.158	0.2	1373094	1373333	BlankScreen	ANTI	108	4	False	red	40	[1350 1830  405  675]	[ 90 570 405 675]
695.397	1.0	1373333	1374333	ELCue	ANTI	108	4	False	red	40	[1350 1830  405  675]	[ 90 570 405 675]
696.818	2.0	1374754	1376785	ShowFixation	VGS	109	4	False	lime	600	[1350 1830  405  675]	[ 90 570 405 675]
698.849	0.2	1376785	1377020	BlankScreen	VGS	109	4	False	lime	600	[1350 1830  405  675]	[ 90 570 405 675]
699.084	1.0	1377020	1378020	ELCue	VGS	109	4	False	lime	600	[1350 1830  405  675]	[ 90 570 405 675]
700.507	6.0	1378443	1384472	ShowFixation	VGS	110	4	False	lime	460	[1035 1515  405  675]	[405 885 405 675]
706.536	0.2	1384472	1384711	BlankScreen	VGS	110	4	False	lime	460	[1035 1515  405  675]	[405 885 405 675]
706.775	1.0	1384711	1385711	ELCue	VGS	110	4	False	lime	460	[1035 1515  405  675]	[405 885 405 675]
708.194	2.0	1386130	1388162	ShowFixation	ANTI	111	4	False	red	600	[ 90 570 405 675]	[1350 1830  405  675]
710.226	0.2	1388162	1388398	BlankScreen	ANTI	111	4	False	red	600	[ 90 570 405 675]	[1350 1830  405  675]
710.462	1.0	1388398	1389398	ELCue	ANTI	111	4	False	red	600	[ 90 570 405 675]	[1350 1830  405  675]
711.881	6.0	1389817	1395849	ShowFixation	ANTI	112	4	False	red	180	[1035 1515  405  675]	[405 885 405 675]
717.913	0.2	1395849	1396089	BlankScreen	ANTI	112	4	False	red	180	[1035 1515  405  675]	[405 885 405 675]
718.153	1.0	1396089	1397089	ELCue	ANTI	112	4	False	red	180	[1035 1515  405  675]	[405 885 405 675]
