participant_id	condition	accuracy	reaction_time
sub-24089	incongruent	1	0.919
sub-24089	incongruent	1	0.507
sub-24089	incongruent	1	0.580
sub-24089	congruent	1	0.432
sub-24089	congruent	1	0.421
sub-24089	congruent	1	0.390
sub-24089	congruent	1	0.392
sub-24089	congruent	1	0.495
sub-24089	incongruent	1	0.543
sub-24089	incongruent	0	0.366
sub-24089	congruent	1	0.529
sub-24089	congruent	1	0.531
sub-24089	congruent	1	0.367
sub-24089	incongruent	1	0.557
sub-24089	incongruent	0	0.325
sub-24089	incongruent	1	0.596
sub-24089	incongruent	1	0.511
sub-24089	congruent	1	0.388
sub-24089	congruent	1	0.391
sub-24089	incongruent	1	0.562
sub-24089	incongruent	1	0.519
sub-24089	incongruent	1	0.506
sub-24089	incongruent	1	0.658
sub-24089	congruent	1	0.351
sub-24089	congruent	1	0.405
sub-24089	incongruent	1	0.586
sub-24089	congruent	1	0.555
sub-24089	congruent	1	0.361
sub-24089	congruent	1	0.380
sub-24089	congruent	1	0.325
sub-24089	incongruent	1	0.427
sub-24089	incongruent	1	0.345
sub-24089	congruent	1	0.257
sub-24089	incongruent	1	0.413
sub-24089	incongruent	1	0.408
sub-24089	incongruent	1	0.495
sub-24089	incongruent	0	0.299
sub-24089	incongruent	1	0.485
sub-24089	incongruent	1	0.358
sub-24089	congruent	1	0.467
sub-24089	incongruent	1	0.511
sub-24089	congruent	1	1.395
sub-24089	incongruent	1	0.711
sub-24089	congruent	1	0.397
sub-24089	congruent	1	0.275
sub-24089	incongruent	0	0.270
sub-24089	incongruent	1	0.489
sub-24089	congruent	1	0.330
sub-24089	incongruent	1	0.490
sub-24089	congruent	1	0.399
sub-24089	congruent	1	0.316
sub-24089	congruent	1	0.386
sub-24089	congruent	1	0.371
sub-24089	incongruent	1	0.489
sub-24089	congruent	1	0.336
sub-24089	congruent	1	0.402
sub-24089	incongruent	1	0.523
sub-24089	congruent	1	0.323
sub-24089	congruent	1	0.453
sub-24089	incongruent	1	0.443
sub-24089	incongruent	0	0.377
sub-24089	incongruent	0	0.351
sub-24089	incongruent	1	0.441
sub-24089	congruent	1	0.458
sub-24089	congruent	1	0.328
sub-24089	congruent	1	0.266
sub-24089	congruent	1	0.390
sub-24089	congruent	1	0.302
sub-24089	congruent	0	0.212
sub-24089	incongruent	1	0.419
sub-24089	congruent	0	0.223
sub-24089	incongruent	1	0.372
sub-24089	congruent	1	0.278
sub-24089	incongruent	0	0.223
sub-24089	congruent	1	0.319
sub-24089	congruent	1	0.319
sub-24089	incongruent	1	0.628
sub-24089	incongruent	1	0.438
sub-24089	incongruent	0	0.275
sub-24089	incongruent	1	0.485
sub-24089	incongruent	1	0.428
sub-24089	incongruent	0	0.265
sub-24089	congruent	1	0.669
sub-24089	incongruent	1	0.333
sub-24089	congruent	1	1.134
sub-24089	incongruent	0	0.358
sub-24089	incongruent	1	0.662
sub-24089	congruent	1	0.361
sub-24089	congruent	1	0.331
sub-24089	congruent	1	0.217
sub-24089	incongruent	0	0.253
sub-24089	congruent	1	0.322
sub-24089	congruent	1	0.290
sub-24089	incongruent	1	0.538
sub-24089	congruent	1	0.473
sub-24089	congruent	1	0.298
sub-24089	incongruent	1	0.382
sub-24089	congruent	1	0.311
sub-24089	incongruent	1	0.197
sub-24089	congruent	1	0.240
sub-24089	congruent	1	0.273
sub-24089	incongruent	1	0.409
sub-24089	incongruent	0	0.316
sub-24089	congruent	1	0.478
sub-24089	incongruent	0	0.285
sub-24089	congruent	1	0.427
sub-24089	congruent	1	0.338
sub-24089	incongruent	1	0.355
sub-24089	incongruent	0	0.355
sub-24089	congruent	1	0.422
sub-24089	incongruent	1	0.606
sub-24089	congruent	1	0.343
sub-24089	incongruent	1	0.474
sub-24089	incongruent	1	0.497
sub-24089	incongruent	1	0.484
sub-24089	incongruent	1	0.534
sub-24089	incongruent	1	0.443
sub-24089	congruent	1	0.455
sub-24089	congruent	1	0.360
sub-24089	congruent	1	0.330
sub-24089	congruent	1	0.466
sub-24089	incongruent	1	0.457
sub-24089	congruent	1	0.376
sub-24089	incongruent	1	0.368
sub-24089	incongruent	1	0.261
sub-24089	incongruent	1	0.385
sub-24089	incongruent	0	0.267
sub-24089	congruent	1	0.278
sub-24089	congruent	1	0.329
sub-24089	congruent	1	0.191
sub-24089	congruent	0	0.227
sub-24089	congruent	1	0.249
sub-24089	incongruent	1	0.198
sub-24089	congruent	0	0.278
sub-24089	congruent	1	0.357
sub-24089	congruent	1	0.260
sub-24089	congruent	0	0.213
sub-24089	incongruent	1	0.542
sub-24089	congruent	1	0.431
sub-24089	incongruent	1	0.382
sub-24089	incongruent	1	0.335
sub-24089	congruent	1	0.350
sub-24089	congruent	0	0.543
sub-24089	incongruent	1	0.641
sub-24089	congruent	1	0.405
sub-24089	incongruent	1	0.553
sub-24089	congruent	1	0.522
sub-24089	incongruent	0	0.313
sub-24089	congruent	1	0.306
sub-24089	incongruent	1	0.410
sub-24089	incongruent	1	0.571
sub-24089	congruent	1	0.356
sub-24089	congruent	1	0.335
sub-24089	incongruent	1	0.511
sub-24089	congruent	1	0.430
sub-24089	incongruent	0	0.337
sub-24089	incongruent	1	0.442
sub-24089	incongruent	1	0.402
sub-24089	congruent	1	0.282
sub-24089	congruent	0	0.025
sub-24089	incongruent	1	0.430
sub-24089	incongruent	0	0.194
sub-24089	incongruent	0	0.231
sub-24089	congruent	1	0.207
sub-24089	congruent	0	0.207
sub-24089	incongruent	0	0.216
sub-24089	congruent	1	0.388
sub-24089	incongruent	0	0.272
sub-24089	incongruent	0	0.296
sub-24089	incongruent	1	0.241
sub-24089	congruent	0	0.258
sub-24089	incongruent	1	0.449
sub-24089	congruent	1	0.342
sub-24089	incongruent	0	0.240
sub-24089	congruent	1	0.282
sub-24089	congruent	1	0.286
sub-24089	incongruent	1	0.436
sub-24089	incongruent	1	0.410
sub-24089	incongruent	0	0.240
sub-24089	congruent	1	0.343
sub-24089	congruent	1	0.430
sub-24089	incongruent	1	0.430
sub-24089	congruent	1	0.278
sub-24089	incongruent	1	0.436
sub-24089	congruent	1	0.296
sub-24089	incongruent	1	0.564
sub-24089	congruent	1	0.322
sub-24089	incongruent	1	0.420
sub-24089	incongruent	1	0.056
sub-24089	congruent	1	0.433
sub-24089	congruent	1	0.408
sub-24089	congruent	1	0.415
sub-24089	congruent	1	0.469
sub-24089	congruent	1	0.322
sub-24089	incongruent	0	0.238
sub-24089	congruent	1	0.390
sub-24089	congruent	1	0.298
sub-24089	incongruent	0	0.264
sub-24089	incongruent	0	0.266
sub-24089	congruent	1	0.381
sub-24089	incongruent	1	0.402
sub-24089	incongruent	0	0.297
sub-24089	congruent	1	0.536
sub-24089	congruent	1	0.414
sub-24089	incongruent	0	0.361
sub-24089	incongruent	0	0.401
sub-24089	congruent	1	0.291
sub-24089	incongruent	0	0.217
sub-24089	incongruent	0	0.490
sub-24089	congruent	1	0.414
sub-24089	congruent	1	0.209
sub-24089	congruent	0	0.143
sub-24089	congruent	1	0.390
sub-24089	incongruent	0	0.199
sub-24089	congruent	0	0.298
sub-24089	incongruent	0	0.253
sub-24089	congruent	1	0.317
sub-24089	incongruent	1	0.435
sub-24089	congruent	1	0.323
sub-24089	incongruent	0	0.245
sub-24089	incongruent	1	0.432
sub-24089	congruent	1	0.359
sub-24089	congruent	1	0.491
sub-24089	incongruent	1	0.189
sub-24089	congruent	0	0.272
sub-24089	incongruent	0	0.305
sub-24089	congruent	0	0.402
sub-24089	incongruent	0	0.310
sub-24089	incongruent	1	0.429
sub-24089	incongruent	1	0.526
sub-24089	congruent	1	0.323
sub-24089	incongruent	1	0.468
sub-24089	congruent	1	0.446
sub-24089	congruent	1	0.332
sub-24089	incongruent	0	0.295
sub-24089	incongruent	1	0.383
sub-24089	congruent	1	0.269
sub-24089	incongruent	0	0.190
sub-24089	incongruent	1	0.438
sub-24089	incongruent	0	0.421
