onset	duration	startTime	stopTime	eventIdentifier	trial_type	trial_number	block_number	is_practice	fixation_color	cue_side	aoi_correct	aoi_incorrect
0.15	2.0	2910342	2912374	ShowFixation	ANTI	1	1	True	red	460	[405 885 405 675]	[1035 1515  405  675]
2.182	0.2	2912374	2912610	BlankScreen	ANTI	1	1	True	red	460	[405 885 405 675]	[1035 1515  405  675]
2.418	1.0	2912610	2913650	ELCue	ANTI	1	1	True	red	460	[405 885 405 675]	[1035 1515  405  675]
3.872	2.0	2914064	2916695	ShowFixation	VGS	2	1	True	lime	460	[1035 1515  405  675]	[405 885 405 675]
6.503	0.2	2916695	2916930	BlankScreen	VGS	2	1	True	lime	460	[1035 1515  405  675]	[405 885 405 675]
6.738	1.0	2916930	2917971	ELCue	VGS	2	1	True	lime	460	[1035 1515  405  675]	[405 885 405 675]
8.198	6.0	2918390	2925016	ShowFixation	ANTI	3	1	True	red	40	[1350 1830  405  675]	[ 90 570 405 675]
14.824	0.2	2925016	2925256	BlankScreen	ANTI	3	1	True	red	40	[1350 1830  405  675]	[ 90 570 405 675]
15.064	1.0	2925256	2926296	ELCue	ANTI	3	1	True	red	40	[1350 1830  405  675]	[ 90 570 405 675]
16.523	2.0	2926715	2929341	ShowFixation	VGS	4	1	True	lime	600	[1350 1830  405  675]	[ 90 570 405 675]
19.15	0.2	2929342	2929577	BlankScreen	VGS	4	1	True	lime	600	[1350 1830  405  675]	[ 90 570 405 675]
19.385	1.0	2929577	2930617	ELCue	VGS	4	1	True	lime	600	[1350 1830  405  675]	[ 90 570 405 675]
20.842	6.0	2931034	2937663	ShowFixation	ANTI	5	1	True	red	180	[1035 1515  405  675]	[405 885 405 675]
27.471	0.2	2937663	2937902	BlankScreen	ANTI	5	1	True	red	180	[1035 1515  405  675]	[405 885 405 675]
27.71	1.0	2937902	2938942	ELCue	ANTI	5	1	True	red	180	[1035 1515  405  675]	[405 885 405 675]
29.168	2.0	2939360	2941988	ShowFixation	VGS	6	1	True	lime	180	[405 885 405 675]	[1035 1515  405  675]
31.796	0.2	2941988	2942223	BlankScreen	VGS	6	1	True	lime	180	[405 885 405 675]	[1035 1515  405  675]
32.031	1.0	2942223	2943263	ELCue	VGS	6	1	True	lime	180	[405 885 405 675]	[1035 1515  405  675]
33.486	6.0	2943678	2950309	ShowFixation	VGS	7	1	True	lime	460	[1035 1515  405  675]	[405 885 405 675]
40.117	0.2	2950309	2950548	BlankScreen	VGS	7	1	True	lime	460	[1035 1515  405  675]	[405 885 405 675]
40.356	1.0	2950548	2951588	ELCue	VGS	7	1	True	lime	460	[1035 1515  405  675]	[405 885 405 675]
41.81	6.0	2952002	2958634	ShowFixation	ANTI	8	1	True	red	600	[ 90 570 405 675]	[1350 1830  405  675]
48.442	0.2	2958634	2958873	BlankScreen	ANTI	8	1	True	red	600	[ 90 570 405 675]	[1350 1830  405  675]
48.681	1.0	2958873	2959913	ELCue	ANTI	8	1	True	red	600	[ 90 570 405 675]	[1350 1830  405  675]
50.137	6.0	2960329	2966958	ShowFixation	ANTI	9	1	True	red	460	[405 885 405 675]	[1035 1515  405  675]
56.766	0.2	2966958	2967198	BlankScreen	ANTI	9	1	True	red	460	[405 885 405 675]	[1035 1515  405  675]
57.006	1.0	2967198	2968238	ELCue	ANTI	9	1	True	red	460	[405 885 405 675]	[1035 1515  405  675]
58.463	6.0	2968655	2975283	ShowFixation	VGS	10	1	True	lime	180	[405 885 405 675]	[1035 1515  405  675]
65.091	0.2	2975283	2975523	BlankScreen	VGS	10	1	True	lime	180	[405 885 405 675]	[1035 1515  405  675]
65.331	1.0	2975523	2976563	ELCue	VGS	10	1	True	lime	180	[405 885 405 675]	[1035 1515  405  675]
66.784	2.0	2976976	2979591	ShowFixation	VGS	11	1	True	lime	40	[ 90 570 405 675]	[1350 1830  405  675]
69.399	0.2	2979591	2979810	BlankScreen	VGS	11	1	True	lime	40	[ 90 570 405 675]	[1350 1830  405  675]
69.618	1.0	2979810	2980833	ELCue	VGS	11	1	True	lime	40	[ 90 570 405 675]	[1350 1830  405  675]
71.058	2.0	2981250	2983879	ShowFixation	ANTI	12	1	True	red	600	[ 90 570 405 675]	[1350 1830  405  675]
73.687	0.2	2983879	2984114	BlankScreen	ANTI	12	1	True	red	600	[ 90 570 405 675]	[1350 1830  405  675]
73.922	1.0	2984114	2985155	ELCue	ANTI	12	1	True	red	600	[ 90 570 405 675]	[1350 1830  405  675]
75.375	2.0	2985567	2988200	ShowFixation	ANTI	13	1	True	red	40	[1350 1830  405  675]	[ 90 570 405 675]
78.008	0.2	2988200	2988435	BlankScreen	ANTI	13	1	True	red	40	[1350 1830  405  675]	[ 90 570 405 675]
78.243	1.0	2988435	2989476	ELCue	ANTI	13	1	True	red	40	[1350 1830  405  675]	[ 90 570 405 675]
79.698	2.0	2989890	2992521	ShowFixation	ANTI	14	1	True	red	180	[1035 1515  405  675]	[405 885 405 675]
82.329	0.2	2992521	2992756	BlankScreen	ANTI	14	1	True	red	180	[1035 1515  405  675]	[405 885 405 675]
82.564	1.0	2992756	2993797	ELCue	ANTI	14	1	True	red	180	[1035 1515  405  675]	[405 885 405 675]
84.02	6.0	2994212	3000842	ShowFixation	VGS	15	1	True	lime	600	[1350 1830  405  675]	[ 90 570 405 675]
90.65	0.2	3000842	3001081	BlankScreen	VGS	15	1	True	lime	600	[1350 1830  405  675]	[ 90 570 405 675]
90.889	1.0	3001081	3002122	ELCue	VGS	15	1	True	lime	600	[1350 1830  405  675]	[ 90 570 405 675]
92.345	6.0	3002537	3009167	ShowFixation	VGS	16	1	True	lime	40	[ 90 570 405 675]	[1350 1830  405  675]
98.975	0.2	3009167	3009406	BlankScreen	VGS	16	1	True	lime	40	[ 90 570 405 675]	[1350 1830  405  675]
99.214	1.0	3009406	3010446	ELCue	VGS	16	1	True	lime	40	[ 90 570 405 675]	[1350 1830  405  675]
120.996	6.0	3031188	3037228	ShowFixation	ANTI	17	2	False	red	600	[ 90 570 405 675]	[1350 1830  405  675]
127.036	0.2	3037228	3037467	BlankScreen	ANTI	17	2	False	red	600	[ 90 570 405 675]	[1350 1830  405  675]
127.275	1.0	3037467	3038467	ELCue	ANTI	17	2	False	red	600	[ 90 570 405 675]	[1350 1830  405  675]
128.695	2.0	3038887	3040919	ShowFixation	VGS	18	2	False	lime	180	[405 885 405 675]	[1035 1515  405  675]
130.727	0.2	3040919	3041154	BlankScreen	VGS	18	2	False	lime	180	[405 885 405 675]	[1035 1515  405  675]
130.963	1.0	3041155	3042155	ELCue	VGS	18	2	False	lime	180	[405 885 405 675]	[1035 1515  405  675]
132.383	6.0	3042575	3048607	ShowFixation	ANTI	19	2	False	red	600	[ 90 570 405 675]	[1350 1830  405  675]
138.415	0.2	3048607	3048846	BlankScreen	ANTI	19	2	False	red	600	[ 90 570 405 675]	[1350 1830  405  675]
138.654	1.0	3048846	3049846	ELCue	ANTI	19	2	False	red	600	[ 90 570 405 675]	[1350 1830  405  675]
140.072	6.0	3050264	3056298	ShowFixation	ANTI	20	2	False	red	40	[1350 1830  405  675]	[ 90 570 405 675]
146.106	0.2	3056298	3056537	BlankScreen	ANTI	20	2	False	red	40	[1350 1830  405  675]	[ 90 570 405 675]
146.345	1.0	3056537	3057537	ELCue	ANTI	20	2	False	red	40	[1350 1830  405  675]	[ 90 570 405 675]
147.762	6.0	3057954	3063988	ShowFixation	VGS	21	2	False	lime	460	[1035 1515  405  675]	[405 885 405 675]
153.796	0.2	3063988	3064228	BlankScreen	VGS	21	2	False	lime	460	[1035 1515  405  675]	[405 885 405 675]
154.036	1.0	3064228	3065228	ELCue	VGS	21	2	False	lime	460	[1035 1515  405  675]	[405 885 405 675]
155.455	2.0	3065647	3067679	ShowFixation	ANTI	22	2	False	red	180	[1035 1515  405  675]	[405 885 405 675]
157.487	0.2	3067679	3067915	BlankScreen	ANTI	22	2	False	red	180	[1035 1515  405  675]	[405 885 405 675]
157.723	1.0	3067915	3068915	ELCue	ANTI	22	2	False	red	180	[1035 1515  405  675]	[405 885 405 675]
159.14	6.0	3069332	3075366	ShowFixation	VGS	23	2	False	lime	600	[1350 1830  405  675]	[ 90 570 405 675]
165.174	0.2	3075366	3075606	BlankScreen	VGS	23	2	False	lime	600	[1350 1830  405  675]	[ 90 570 405 675]
165.414	1.0	3075606	3076606	ELCue	VGS	23	2	False	lime	600	[1350 1830  405  675]	[ 90 570 405 675]
166.832	6.0	3077024	3083057	ShowFixation	ANTI	24	2	False	red	460	[405 885 405 675]	[1035 1515  405  675]
172.865	0.2	3083057	3083297	BlankScreen	ANTI	24	2	False	red	460	[405 885 405 675]	[1035 1515  405  675]
173.105	1.0	3083297	3084297	ELCue	ANTI	24	2	False	red	460	[405 885 405 675]	[1035 1515  405  675]
174.524	2.0	3084716	3086748	ShowFixation	ANTI	25	2	False	red	40	[1350 1830  405  675]	[ 90 570 405 675]
176.556	0.2	3086748	3086983	BlankScreen	ANTI	25	2	False	red	40	[1350 1830  405  675]	[ 90 570 405 675]
176.791	1.0	3086983	3087983	ELCue	ANTI	25	2	False	red	40	[1350 1830  405  675]	[ 90 570 405 675]
178.211	6.0	3088403	3094435	ShowFixation	ANTI	26	2	False	red	460	[405 885 405 675]	[1035 1515  405  675]
184.243	0.2	3094435	3094674	BlankScreen	ANTI	26	2	False	red	460	[405 885 405 675]	[1035 1515  405  675]
184.482	1.0	3094674	3095674	ELCue	ANTI	26	2	False	red	460	[405 885 405 675]	[1035 1515  405  675]
185.901	6.0	3096093	3102126	ShowFixation	ANTI	27	2	False	red	40	[1350 1830  405  675]	[ 90 570 405 675]
191.934	0.2	3102126	3102365	BlankScreen	ANTI	27	2	False	red	40	[1350 1830  405  675]	[ 90 570 405 675]
192.173	1.0	3102365	3103365	ELCue	ANTI	27	2	False	red	40	[1350 1830  405  675]	[ 90 570 405 675]
193.595	2.0	3103787	3105817	ShowFixation	VGS	28	2	False	lime	460	[1035 1515  405  675]	[405 885 405 675]
195.625	0.2	3105817	3106052	BlankScreen	VGS	28	2	False	lime	460	[1035 1515  405  675]	[405 885 405 675]
195.86	1.0	3106052	3107052	ELCue	VGS	28	2	False	lime	460	[1035 1515  405  675]	[405 885 405 675]
197.277	2.0	3107469	3109504	ShowFixation	VGS	29	2	False	lime	180	[405 885 405 675]	[1035 1515  405  675]
199.312	0.2	3109504	3109739	BlankScreen	VGS	29	2	False	lime	180	[405 885 405 675]	[1035 1515  405  675]
199.547	1.0	3109739	3110739	ELCue	VGS	29	2	False	lime	180	[405 885 405 675]	[1035 1515  405  675]
200.967	6.0	3111159	3117191	ShowFixation	VGS	30	2	False	lime	40	[ 90 570 405 675]	[1350 1830  405  675]
206.999	0.2	3117191	3117430	BlankScreen	VGS	30	2	False	lime	40	[ 90 570 405 675]	[1350 1830  405  675]
207.238	1.0	3117430	3118430	ELCue	VGS	30	2	False	lime	40	[ 90 570 405 675]	[1350 1830  405  675]
208.659	2.0	3118851	3120882	ShowFixation	VGS	31	2	False	lime	600	[1350 1830  405  675]	[ 90 570 405 675]
210.69	0.2	3120882	3121117	BlankScreen	VGS	31	2	False	lime	600	[1350 1830  405  675]	[ 90 570 405 675]
210.925	1.0	3121117	3122117	ELCue	VGS	31	2	False	lime	600	[1350 1830  405  675]	[ 90 570 405 675]
212.351	2.0	3122543	3124569	ShowFixation	ANTI	32	2	False	red	180	[1035 1515  405  675]	[405 885 405 675]
214.377	0.2	3124569	3124804	BlankScreen	ANTI	32	2	False	red	180	[1035 1515  405  675]	[405 885 405 675]
214.612	1.0	3124804	3125804	ELCue	ANTI	32	2	False	red	180	[1035 1515  405  675]	[405 885 405 675]
216.036	6.0	3126228	3132256	ShowFixation	VGS	33	2	False	lime	180	[405 885 405 675]	[1035 1515  405  675]
222.064	0.2	3132256	3132495	BlankScreen	VGS	33	2	False	lime	180	[405 885 405 675]	[1035 1515  405  675]
222.303	1.0	3132495	3133495	ELCue	VGS	33	2	False	lime	180	[405 885 405 675]	[1035 1515  405  675]
223.728	2.0	3133920	3135947	ShowFixation	ANTI	34	2	False	red	600	[ 90 570 405 675]	[1350 1830  405  675]
225.755	0.2	3135947	3136182	BlankScreen	ANTI	34	2	False	red	600	[ 90 570 405 675]	[1350 1830  405  675]
225.99	1.0	3136182	3137182	ELCue	ANTI	34	2	False	red	600	[ 90 570 405 675]	[1350 1830  405  675]
227.413	6.0	3137605	3143634	ShowFixation	VGS	35	2	False	lime	600	[1350 1830  405  675]	[ 90 570 405 675]
233.442	0.2	3143634	3143873	BlankScreen	VGS	35	2	False	lime	600	[1350 1830  405  675]	[ 90 570 405 675]
233.681	1.0	3143873	3144873	ELCue	VGS	35	2	False	lime	600	[1350 1830  405  675]	[ 90 570 405 675]
235.104	2.0	3145296	3147325	ShowFixation	VGS	36	2	False	lime	600	[1350 1830  405  675]	[ 90 570 405 675]
237.133	0.2	3147325	3147560	BlankScreen	VGS	36	2	False	lime	600	[1350 1830  405  675]	[ 90 570 405 675]
237.369	1.0	3147561	3148561	ELCue	VGS	36	2	False	lime	600	[1350 1830  405  675]	[ 90 570 405 675]
238.793	2.0	3148985	3151012	ShowFixation	ANTI	37	2	False	red	600	[ 90 570 405 675]	[1350 1830  405  675]
240.82	0.2	3151012	3151247	BlankScreen	ANTI	37	2	False	red	600	[ 90 570 405 675]	[1350 1830  405  675]
241.055	1.0	3151247	3152247	ELCue	ANTI	37	2	False	red	600	[ 90 570 405 675]	[1350 1830  405  675]
242.476	6.0	3152668	3158699	ShowFixation	ANTI	38	2	False	red	180	[1035 1515  405  675]	[405 885 405 675]
248.507	0.2	3158699	3158939	BlankScreen	ANTI	38	2	False	red	180	[1035 1515  405  675]	[405 885 405 675]
248.747	1.0	3158939	3159939	ELCue	ANTI	38	2	False	red	180	[1035 1515  405  675]	[405 885 405 675]
250.165	6.0	3160357	3166390	ShowFixation	VGS	39	2	False	lime	180	[405 885 405 675]	[1035 1515  405  675]
256.198	0.2	3166390	3166630	BlankScreen	VGS	39	2	False	lime	180	[405 885 405 675]	[1035 1515  405  675]
256.438	1.0	3166630	3167630	ELCue	VGS	39	2	False	lime	180	[405 885 405 675]	[1035 1515  405  675]
257.858	2.0	3168050	3170081	ShowFixation	VGS	40	2	False	lime	460	[1035 1515  405  675]	[405 885 405 675]
259.889	0.2	3170081	3170317	BlankScreen	VGS	40	2	False	lime	460	[1035 1515  405  675]	[405 885 405 675]
260.125	1.0	3170317	3171317	ELCue	VGS	40	2	False	lime	460	[1035 1515  405  675]	[405 885 405 675]
261.542	2.0	3171734	3173768	ShowFixation	ANTI	41	2	False	red	460	[405 885 405 675]	[1035 1515  405  675]
263.576	0.2	3173768	3174004	BlankScreen	ANTI	41	2	False	red	460	[405 885 405 675]	[1035 1515  405  675]
263.812	1.0	3174004	3175004	ELCue	ANTI	41	2	False	red	460	[405 885 405 675]	[1035 1515  405  675]
265.232	6.0	3175424	3181455	ShowFixation	ANTI	42	2	False	red	180	[1035 1515  405  675]	[405 885 405 675]
271.263	0.2	3181455	3181695	BlankScreen	ANTI	42	2	False	red	180	[1035 1515  405  675]	[405 885 405 675]
271.503	1.0	3181695	3182695	ELCue	ANTI	42	2	False	red	180	[1035 1515  405  675]	[405 885 405 675]
272.974	2.0	3183166	3185196	ShowFixation	VGS	43	2	False	lime	40	[ 90 570 405 675]	[1350 1830  405  675]
275.004	0.2	3185196	3185432	BlankScreen	VGS	43	2	False	lime	40	[ 90 570 405 675]	[1350 1830  405  675]
275.24	1.0	3185432	3186432	ELCue	VGS	43	2	False	lime	40	[ 90 570 405 675]	[1350 1830  405  675]
276.659	2.0	3186851	3188883	ShowFixation	ANTI	44	2	False	red	460	[405 885 405 675]	[1035 1515  405  675]
278.691	0.2	3188883	3189119	BlankScreen	ANTI	44	2	False	red	460	[405 885 405 675]	[1035 1515  405  675]
278.927	1.0	3189119	3190119	ELCue	ANTI	44	2	False	red	460	[405 885 405 675]	[1035 1515  405  675]
280.349	2.0	3190541	3192570	ShowFixation	VGS	45	2	False	lime	40	[ 90 570 405 675]	[1350 1830  405  675]
282.378	0.2	3192570	3192805	BlankScreen	VGS	45	2	False	lime	40	[ 90 570 405 675]	[1350 1830  405  675]
282.613	1.0	3192805	3193805	ELCue	VGS	45	2	False	lime	40	[ 90 570 405 675]	[1350 1830  405  675]
284.029	2.0	3194221	3196257	ShowFixation	ANTI	46	2	False	red	40	[1350 1830  405  675]	[ 90 570 405 675]
286.065	0.2	3196257	3196492	BlankScreen	ANTI	46	2	False	red	40	[1350 1830  405  675]	[ 90 570 405 675]
286.3	1.0	3196492	3197492	ELCue	ANTI	46	2	False	red	40	[1350 1830  405  675]	[ 90 570 405 675]
287.718	6.0	3197910	3203944	ShowFixation	VGS	47	2	False	lime	40	[ 90 570 405 675]	[1350 1830  405  675]
293.752	0.2	3203944	3204183	BlankScreen	VGS	47	2	False	lime	40	[ 90 570 405 675]	[1350 1830  405  675]
293.991	1.0	3204183	3205183	ELCue	VGS	47	2	False	lime	40	[ 90 570 405 675]	[1350 1830  405  675]
295.407	6.0	3205599	3211635	ShowFixation	VGS	48	2	False	lime	460	[1035 1515  405  675]	[405 885 405 675]
301.443	0.2	3211635	3211874	BlankScreen	VGS	48	2	False	lime	460	[1035 1515  405  675]	[405 885 405 675]
301.682	1.0	3211874	3212874	ELCue	VGS	48	2	False	lime	460	[1035 1515  405  675]	[405 885 405 675]
328.161	6.0	3238353	3244384	ShowFixation	ANTI	49	3	False	red	600	[ 90 570 405 675]	[1350 1830  405  675]
334.192	0.2	3244384	3244623	BlankScreen	ANTI	49	3	False	red	600	[ 90 570 405 675]	[1350 1830  405  675]
334.431	1.0	3244623	3245623	ELCue	ANTI	49	3	False	red	600	[ 90 570 405 675]	[1350 1830  405  675]
335.854	6.0	3246046	3252075	ShowFixation	VGS	50	3	False	lime	460	[1035 1515  405  675]	[405 885 405 675]
341.883	0.2	3252075	3252314	BlankScreen	VGS	50	3	False	lime	460	[1035 1515  405  675]	[405 885 405 675]
342.122	1.0	3252314	3253314	ELCue	VGS	50	3	False	lime	460	[1035 1515  405  675]	[405 885 405 675]
343.544	6.0	3253736	3259766	ShowFixation	ANTI	51	3	False	red	460	[405 885 405 675]	[1035 1515  405  675]
349.575	0.2	3259767	3260005	BlankScreen	ANTI	51	3	False	red	460	[405 885 405 675]	[1035 1515  405  675]
349.813	1.0	3260005	3261005	ELCue	ANTI	51	3	False	red	460	[405 885 405 675]	[1035 1515  405  675]
351.236	6.0	3261428	3267457	ShowFixation	VGS	52	3	False	lime	40	[ 90 570 405 675]	[1350 1830  405  675]
357.265	0.2	3267457	3267696	BlankScreen	VGS	52	3	False	lime	40	[ 90 570 405 675]	[1350 1830  405  675]
357.505	1.0	3267697	3268697	ELCue	VGS	52	3	False	lime	40	[ 90 570 405 675]	[1350 1830  405  675]
358.921	2.0	3269113	3271149	ShowFixation	ANTI	53	3	False	red	460	[405 885 405 675]	[1035 1515  405  675]
360.957	0.2	3271149	3271384	BlankScreen	ANTI	53	3	False	red	460	[405 885 405 675]	[1035 1515  405  675]
361.192	1.0	3271384	3272384	ELCue	ANTI	53	3	False	red	460	[405 885 405 675]	[1035 1515  405  675]
362.615	2.0	3272807	3274835	ShowFixation	ANTI	54	3	False	red	40	[1350 1830  405  675]	[ 90 570 405 675]
364.644	0.2	3274836	3275070	BlankScreen	ANTI	54	3	False	red	40	[1350 1830  405  675]	[ 90 570 405 675]
364.879	1.0	3275071	3276071	ELCue	ANTI	54	3	False	red	40	[1350 1830  405  675]	[ 90 570 405 675]
366.301	2.0	3276493	3278523	ShowFixation	ANTI	55	3	False	red	180	[1035 1515  405  675]	[405 885 405 675]
368.331	0.2	3278523	3278758	BlankScreen	ANTI	55	3	False	red	180	[1035 1515  405  675]	[405 885 405 675]
368.566	1.0	3278758	3279758	ELCue	ANTI	55	3	False	red	180	[1035 1515  405  675]	[405 885 405 675]
369.982	2.0	3280174	3282210	ShowFixation	ANTI	56	3	False	red	600	[ 90 570 405 675]	[1350 1830  405  675]
372.018	0.2	3282210	3282445	BlankScreen	ANTI	56	3	False	red	600	[ 90 570 405 675]	[1350 1830  405  675]
372.253	1.0	3282445	3283445	ELCue	ANTI	56	3	False	red	600	[ 90 570 405 675]	[1350 1830  405  675]
373.67	2.0	3283862	3285896	ShowFixation	ANTI	57	3	False	red	600	[ 90 570 405 675]	[1350 1830  405  675]
375.704	0.2	3285896	3286132	BlankScreen	ANTI	57	3	False	red	600	[ 90 570 405 675]	[1350 1830  405  675]
375.94	1.0	3286132	3287132	ELCue	ANTI	57	3	False	red	600	[ 90 570 405 675]	[1350 1830  405  675]
377.362	6.0	3287554	3293583	ShowFixation	VGS	58	3	False	lime	180	[405 885 405 675]	[1035 1515  405  675]
383.391	0.2	3293583	3293823	BlankScreen	VGS	58	3	False	lime	180	[405 885 405 675]	[1035 1515  405  675]
383.631	1.0	3293823	3294823	ELCue	VGS	58	3	False	lime	180	[405 885 405 675]	[1035 1515  405  675]
385.052	6.0	3295244	3301274	ShowFixation	ANTI	59	3	False	red	180	[1035 1515  405  675]	[405 885 405 675]
391.082	0.2	3301274	3301514	BlankScreen	ANTI	59	3	False	red	180	[1035 1515  405  675]	[405 885 405 675]
391.322	1.0	3301514	3302514	ELCue	ANTI	59	3	False	red	180	[1035 1515  405  675]	[405 885 405 675]
392.743	2.0	3302935	3304965	ShowFixation	VGS	60	3	False	lime	180	[405 885 405 675]	[1035 1515  405  675]
394.773	0.2	3304965	3305201	BlankScreen	VGS	60	3	False	lime	180	[405 885 405 675]	[1035 1515  405  675]
395.009	1.0	3305201	3306201	ELCue	VGS	60	3	False	lime	180	[405 885 405 675]	[1035 1515  405  675]
396.429	6.0	3306621	3312652	ShowFixation	VGS	61	3	False	lime	600	[1350 1830  405  675]	[ 90 570 405 675]
402.46	0.2	3312652	3312892	BlankScreen	VGS	61	3	False	lime	600	[1350 1830  405  675]	[ 90 570 405 675]
402.7	1.0	3312892	3313892	ELCue	VGS	61	3	False	lime	600	[1350 1830  405  675]	[ 90 570 405 675]
404.118	6.0	3314310	3320343	ShowFixation	VGS	62	3	False	lime	460	[1035 1515  405  675]	[405 885 405 675]
410.151	0.2	3320343	3320582	BlankScreen	VGS	62	3	False	lime	460	[1035 1515  405  675]	[405 885 405 675]
410.39	1.0	3320582	3321582	ELCue	VGS	62	3	False	lime	460	[1035 1515  405  675]	[405 885 405 675]
411.807	2.0	3321999	3324034	ShowFixation	ANTI	63	3	False	red	40	[1350 1830  405  675]	[ 90 570 405 675]
413.842	0.2	3324034	3324269	BlankScreen	ANTI	63	3	False	red	40	[1350 1830  405  675]	[ 90 570 405 675]
414.077	1.0	3324269	3325269	ELCue	ANTI	63	3	False	red	40	[1350 1830  405  675]	[ 90 570 405 675]
415.499	6.0	3325691	3331721	ShowFixation	ANTI	64	3	False	red	460	[405 885 405 675]	[1035 1515  405  675]
421.529	0.2	3331721	3331960	BlankScreen	ANTI	64	3	False	red	460	[405 885 405 675]	[1035 1515  405  675]
421.768	1.0	3331960	3332960	ELCue	ANTI	64	3	False	red	460	[405 885 405 675]	[1035 1515  405  675]
423.189	2.0	3333381	3335412	ShowFixation	VGS	65	3	False	lime	600	[1350 1830  405  675]	[ 90 570 405 675]
425.22	0.2	3335412	3335647	BlankScreen	VGS	65	3	False	lime	600	[1350 1830  405  675]	[ 90 570 405 675]
425.455	1.0	3335647	3336647	ELCue	VGS	65	3	False	lime	600	[1350 1830  405  675]	[ 90 570 405 675]
426.877	2.0	3337069	3339099	ShowFixation	VGS	66	3	False	lime	460	[1035 1515  405  675]	[405 885 405 675]
428.907	0.2	3339099	3339334	BlankScreen	VGS	66	3	False	lime	460	[1035 1515  405  675]	[405 885 405 675]
429.142	1.0	3339334	3340334	ELCue	VGS	66	3	False	lime	460	[1035 1515  405  675]	[405 885 405 675]
430.564	2.0	3340756	3342786	ShowFixation	VGS	67	3	False	lime	600	[1350 1830  405  675]	[ 90 570 405 675]
432.594	0.2	3342786	3343021	BlankScreen	VGS	67	3	False	lime	600	[1350 1830  405  675]	[ 90 570 405 675]
432.829	1.0	3343021	3344021	ELCue	VGS	67	3	False	lime	600	[1350 1830  405  675]	[ 90 570 405 675]
434.259	2.0	3344451	3346490	ShowFixation	VGS	68	3	False	lime	180	[405 885 405 675]	[1035 1515  405  675]
436.298	0.2	3346490	3346725	BlankScreen	VGS	68	3	False	lime	180	[405 885 405 675]	[1035 1515  405  675]
436.533	1.0	3346725	3347725	ELCue	VGS	68	3	False	lime	180	[405 885 405 675]	[1035 1515  405  675]
437.953	6.0	3348145	3354177	ShowFixation	VGS	69	3	False	lime	600	[1350 1830  405  675]	[ 90 570 405 675]
443.985	0.2	3354177	3354416	BlankScreen	VGS	69	3	False	lime	600	[1350 1830  405  675]	[ 90 570 405 675]
444.224	1.0	3354416	3355416	ELCue	VGS	69	3	False	lime	600	[1350 1830  405  675]	[ 90 570 405 675]
445.63	2.0	3355822	3357851	ShowFixation	VGS	70	3	False	lime	460	[1035 1515  405  675]	[405 885 405 675]
447.659	0.2	3357851	3358086	BlankScreen	VGS	70	3	False	lime	460	[1035 1515  405  675]	[405 885 405 675]
447.894	1.0	3358086	3359086	ELCue	VGS	70	3	False	lime	460	[1035 1515  405  675]	[405 885 405 675]
449.319	6.0	3359511	3365538	ShowFixation	ANTI	71	3	False	red	180	[1035 1515  405  675]	[405 885 405 675]
455.346	0.2	3365538	3365777	BlankScreen	ANTI	71	3	False	red	180	[1035 1515  405  675]	[405 885 405 675]
455.585	1.0	3365777	3366777	ELCue	ANTI	71	3	False	red	180	[1035 1515  405  675]	[405 885 405 675]
456.987	2.0	3367179	3369212	ShowFixation	ANTI	72	3	False	red	180	[1035 1515  405  675]	[405 885 405 675]
459.02	0.2	3369212	3369447	BlankScreen	ANTI	72	3	False	red	180	[1035 1515  405  675]	[405 885 405 675]
459.255	1.0	3369447	3370447	ELCue	ANTI	72	3	False	red	180	[1035 1515  405  675]	[405 885 405 675]
460.678	2.0	3370870	3372899	ShowFixation	VGS	73	3	False	lime	40	[ 90 570 405 675]	[1350 1830  405  675]
462.707	0.2	3372899	3373134	BlankScreen	VGS	73	3	False	lime	40	[ 90 570 405 675]	[1350 1830  405  675]
462.942	1.0	3373134	3374134	ELCue	VGS	73	3	False	lime	40	[ 90 570 405 675]	[1350 1830  405  675]
464.362	6.0	3374554	3380586	ShowFixation	ANTI	74	3	False	red	40	[1350 1830  405  675]	[ 90 570 405 675]
470.395	0.2	3380587	3380825	BlankScreen	ANTI	74	3	False	red	40	[1350 1830  405  675]	[ 90 570 405 675]
470.633	1.0	3380825	3381825	ELCue	ANTI	74	3	False	red	40	[1350 1830  405  675]	[ 90 570 405 675]
472.026	2.0	3382218	3384243	ShowFixation	VGS	75	3	False	lime	40	[ 90 570 405 675]	[1350 1830  405  675]
474.051	0.2	3384243	3384479	BlankScreen	VGS	75	3	False	lime	40	[ 90 570 405 675]	[1350 1830  405  675]
474.288	1.0	3384480	3385480	ELCue	VGS	75	3	False	lime	40	[ 90 570 405 675]	[1350 1830  405  675]
475.71	2.0	3385902	3387931	ShowFixation	ANTI	76	3	False	red	460	[405 885 405 675]	[1035 1515  405  675]
477.739	0.2	3387931	3388167	BlankScreen	ANTI	76	3	False	red	460	[405 885 405 675]	[1035 1515  405  675]
477.975	1.0	3388167	3389167	ELCue	ANTI	76	3	False	red	460	[405 885 405 675]	[1035 1515  405  675]
479.395	6.0	3389587	3395618	ShowFixation	ANTI	77	3	False	red	40	[1350 1830  405  675]	[ 90 570 405 675]
485.426	0.2	3395618	3395858	BlankScreen	ANTI	77	3	False	red	40	[1350 1830  405  675]	[ 90 570 405 675]
485.666	1.0	3395858	3396858	ELCue	ANTI	77	3	False	red	40	[1350 1830  405  675]	[ 90 570 405 675]
487.084	6.0	3397276	3403309	ShowFixation	VGS	78	3	False	lime	180	[405 885 405 675]	[1035 1515  405  675]
493.117	0.2	3403309	3403549	BlankScreen	VGS	78	3	False	lime	180	[405 885 405 675]	[1035 1515  405  675]
493.357	1.0	3403549	3404549	ELCue	VGS	78	3	False	lime	180	[405 885 405 675]	[1035 1515  405  675]
494.774	6.0	3404966	3411000	ShowFixation	ANTI	79	3	False	red	600	[ 90 570 405 675]	[1350 1830  405  675]
500.808	0.2	3411000	3411239	BlankScreen	ANTI	79	3	False	red	600	[ 90 570 405 675]	[1350 1830  405  675]
501.047	1.0	3411239	3412239	ELCue	ANTI	79	3	False	red	600	[ 90 570 405 675]	[1350 1830  405  675]
502.469	6.0	3412661	3418691	ShowFixation	VGS	80	3	False	lime	40	[ 90 570 405 675]	[1350 1830  405  675]
508.499	0.2	3418691	3418930	BlankScreen	VGS	80	3	False	lime	40	[ 90 570 405 675]	[1350 1830  405  675]
508.738	1.0	3418930	3419930	ELCue	VGS	80	3	False	lime	40	[ 90 570 405 675]	[1350 1830  405  675]
528.497	6.0	3438689	3444717	ShowFixation	ANTI	81	4	False	red	180	[1035 1515  405  675]	[405 885 405 675]
534.525	0.2	3444717	3444956	BlankScreen	ANTI	81	4	False	red	180	[1035 1515  405  675]	[405 885 405 675]
534.764	1.0	3444956	3445956	ELCue	ANTI	81	4	False	red	180	[1035 1515  405  675]	[405 885 405 675]
536.185	6.0	3446377	3452408	ShowFixation	ANTI	82	4	False	red	40	[1350 1830  405  675]	[ 90 570 405 675]
542.216	0.2	3452408	3452647	BlankScreen	ANTI	82	4	False	red	40	[1350 1830  405  675]	[ 90 570 405 675]
542.455	1.0	3452647	3453647	ELCue	ANTI	82	4	False	red	40	[1350 1830  405  675]	[ 90 570 405 675]
543.875	6.0	3454067	3460099	ShowFixation	ANTI	83	4	False	red	600	[ 90 570 405 675]	[1350 1830  405  675]
549.907	0.2	3460099	3460338	BlankScreen	ANTI	83	4	False	red	600	[ 90 570 405 675]	[1350 1830  405  675]
550.146	1.0	3460338	3461338	ELCue	ANTI	83	4	False	red	600	[ 90 570 405 675]	[1350 1830  405  675]
551.567	6.0	3461759	3467790	ShowFixation	VGS	84	4	False	lime	460	[1035 1515  405  675]	[405 885 405 675]
557.598	0.2	3467790	3468029	BlankScreen	VGS	84	4	False	lime	460	[1035 1515  405  675]	[405 885 405 675]
557.837	1.0	3468029	3469029	ELCue	VGS	84	4	False	lime	460	[1035 1515  405  675]	[405 885 405 675]
559.256	6.0	3469448	3475480	ShowFixation	ANTI	85	4	False	red	40	[1350 1830  405  675]	[ 90 570 405 675]
565.288	0.2	3475480	3475720	BlankScreen	ANTI	85	4	False	red	40	[1350 1830  405  675]	[ 90 570 405 675]
565.528	1.0	3475720	3476720	ELCue	ANTI	85	4	False	red	40	[1350 1830  405  675]	[ 90 570 405 675]
566.952	2.0	3477144	3479171	ShowFixation	ANTI	86	4	False	red	600	[ 90 570 405 675]	[1350 1830  405  675]
568.979	0.2	3479171	3479407	BlankScreen	ANTI	86	4	False	red	600	[ 90 570 405 675]	[1350 1830  405  675]
569.215	1.0	3479407	3480407	ELCue	ANTI	86	4	False	red	600	[ 90 570 405 675]	[1350 1830  405  675]
570.637	2.0	3480829	3482858	ShowFixation	VGS	87	4	False	lime	40	[ 90 570 405 675]	[1350 1830  405  675]
572.666	0.2	3482858	3483094	BlankScreen	VGS	87	4	False	lime	40	[ 90 570 405 675]	[1350 1830  405  675]
572.902	1.0	3483094	3484094	ELCue	VGS	87	4	False	lime	40	[ 90 570 405 675]	[1350 1830  405  675]
574.326	6.0	3484518	3490545	ShowFixation	VGS	88	4	False	lime	180	[405 885 405 675]	[1035 1515  405  675]
580.353	0.2	3490545	3490785	BlankScreen	VGS	88	4	False	lime	180	[405 885 405 675]	[1035 1515  405  675]
580.593	1.0	3490785	3491785	ELCue	VGS	88	4	False	lime	180	[405 885 405 675]	[1035 1515  405  675]
582.018	6.0	3492210	3498237	ShowFixation	VGS	89	4	False	lime	600	[1350 1830  405  675]	[ 90 570 405 675]
588.045	0.2	3498237	3498475	BlankScreen	VGS	89	4	False	lime	600	[1350 1830  405  675]	[ 90 570 405 675]
588.284	1.0	3498476	3499476	ELCue	VGS	89	4	False	lime	600	[1350 1830  405  675]	[ 90 570 405 675]
589.707	6.0	3499899	3505928	ShowFixation	VGS	90	4	False	lime	40	[ 90 570 405 675]	[1350 1830  405  675]
595.736	0.2	3505928	3506167	BlankScreen	VGS	90	4	False	lime	40	[ 90 570 405 675]	[1350 1830  405  675]
595.975	1.0	3506167	3507167	ELCue	VGS	90	4	False	lime	40	[ 90 570 405 675]	[1350 1830  405  675]
597.393	2.0	3507585	3509619	ShowFixation	VGS	91	4	False	lime	460	[1035 1515  405  675]	[405 885 405 675]
599.427	0.2	3509619	3509854	BlankScreen	VGS	91	4	False	lime	460	[1035 1515  405  675]	[405 885 405 675]
599.662	1.0	3509854	3510854	ELCue	VGS	91	4	False	lime	460	[1035 1515  405  675]	[405 885 405 675]
601.085	2.0	3511277	3513306	ShowFixation	VGS	92	4	False	lime	460	[1035 1515  405  675]	[405 885 405 675]
603.114	0.2	3513306	3513541	BlankScreen	VGS	92	4	False	lime	460	[1035 1515  405  675]	[405 885 405 675]
603.349	1.0	3513541	3514541	ELCue	VGS	92	4	False	lime	460	[1035 1515  405  675]	[405 885 405 675]
604.768	2.0	3514960	3516993	ShowFixation	VGS	93	4	False	lime	600	[1350 1830  405  675]	[ 90 570 405 675]
606.801	0.2	3516993	3517228	BlankScreen	VGS	93	4	False	lime	600	[1350 1830  405  675]	[ 90 570 405 675]
607.036	1.0	3517228	3518228	ELCue	VGS	93	4	False	lime	600	[1350 1830  405  675]	[ 90 570 405 675]
608.441	6.0	3518633	3524663	ShowFixation	VGS	94	4	False	lime	460	[1035 1515  405  675]	[405 885 405 675]
614.471	0.2	3524663	3524902	BlankScreen	VGS	94	4	False	lime	460	[1035 1515  405  675]	[405 885 405 675]
614.71	1.0	3524902	3525902	ELCue	VGS	94	4	False	lime	460	[1035 1515  405  675]	[405 885 405 675]
616.134	2.0	3526326	3528354	ShowFixation	VGS	95	4	False	lime	180	[405 885 405 675]	[1035 1515  405  675]
618.162	0.2	3528354	3528589	BlankScreen	VGS	95	4	False	lime	180	[405 885 405 675]	[1035 1515  405  675]
618.397	1.0	3528589	3529589	ELCue	VGS	95	4	False	lime	180	[405 885 405 675]	[1035 1515  405  675]
619.82	6.0	3530012	3536041	ShowFixation	ANTI	96	4	False	red	460	[405 885 405 675]	[1035 1515  405  675]
625.849	0.2	3536041	3536280	BlankScreen	ANTI	96	4	False	red	460	[405 885 405 675]	[1035 1515  405  675]
626.088	1.0	3536280	3537280	ELCue	ANTI	96	4	False	red	460	[405 885 405 675]	[1035 1515  405  675]
627.479	2.0	3537671	3539699	ShowFixation	ANTI	97	4	False	red	460	[405 885 405 675]	[1035 1515  405  675]
629.507	0.2	3539699	3539934	BlankScreen	ANTI	97	4	False	red	460	[405 885 405 675]	[1035 1515  405  675]
629.742	1.0	3539934	3540934	ELCue	ANTI	97	4	False	red	460	[405 885 405 675]	[1035 1515  405  675]
631.128	2.0	3541320	3543352	ShowFixation	ANTI	98	4	False	red	40	[1350 1830  405  675]	[ 90 570 405 675]
633.16	0.2	3543352	3543588	BlankScreen	ANTI	98	4	False	red	40	[1350 1830  405  675]	[ 90 570 405 675]
633.396	1.0	3543588	3544588	ELCue	ANTI	98	4	False	red	40	[1350 1830  405  675]	[ 90 570 405 675]
634.778	6.0	3544970	3551006	ShowFixation	VGS	99	4	False	lime	600	[1350 1830  405  675]	[ 90 570 405 675]
640.814	0.2	3551006	3551245	BlankScreen	VGS	99	4	False	lime	600	[1350 1830  405  675]	[ 90 570 405 675]
641.053	1.0	3551245	3552245	ELCue	VGS	99	4	False	lime	600	[1350 1830  405  675]	[ 90 570 405 675]
642.476	2.0	3552668	3554697	ShowFixation	VGS	100	4	False	lime	40	[ 90 570 405 675]	[1350 1830  405  675]
644.505	0.2	3554697	3554932	BlankScreen	VGS	100	4	False	lime	40	[ 90 570 405 675]	[1350 1830  405  675]
644.74	1.0	3554932	3555932	ELCue	VGS	100	4	False	lime	40	[ 90 570 405 675]	[1350 1830  405  675]
646.16	2.0	3556352	3558384	ShowFixation	ANTI	101	4	False	red	180	[1035 1515  405  675]	[405 885 405 675]
648.192	0.2	3558384	3558619	BlankScreen	ANTI	101	4	False	red	180	[1035 1515  405  675]	[405 885 405 675]
648.427	1.0	3558619	3559619	ELCue	ANTI	101	4	False	red	180	[1035 1515  405  675]	[405 885 405 675]
649.847	2.0	3560039	3562071	ShowFixation	ANTI	102	4	False	red	460	[405 885 405 675]	[1035 1515  405  675]
651.879	0.2	3562071	3562306	BlankScreen	ANTI	102	4	False	red	460	[405 885 405 675]	[1035 1515  405  675]
652.114	1.0	3562306	3563306	ELCue	ANTI	102	4	False	red	460	[405 885 405 675]	[1035 1515  405  675]
653.537	6.0	3563729	3569758	ShowFixation	ANTI	103	4	False	red	460	[405 885 405 675]	[1035 1515  405  675]
659.566	0.2	3569758	3569997	BlankScreen	ANTI	103	4	False	red	460	[405 885 405 675]	[1035 1515  405  675]
659.805	1.0	3569997	3570997	ELCue	ANTI	103	4	False	red	460	[405 885 405 675]	[1035 1515  405  675]
661.225	6.0	3571417	3577449	ShowFixation	ANTI	104	4	False	red	180	[1035 1515  405  675]	[405 885 405 675]
667.257	0.2	3577449	3577688	BlankScreen	ANTI	104	4	False	red	180	[1035 1515  405  675]	[405 885 405 675]
667.496	1.0	3577688	3578688	ELCue	ANTI	104	4	False	red	180	[1035 1515  405  675]	[405 885 405 675]
668.914	2.0	3579106	3581139	ShowFixation	ANTI	105	4	False	red	40	[1350 1830  405  675]	[ 90 570 405 675]
670.947	0.2	3581139	3581375	BlankScreen	ANTI	105	4	False	red	40	[1350 1830  405  675]	[ 90 570 405 675]
671.183	1.0	3581375	3582375	ELCue	ANTI	105	4	False	red	40	[1350 1830  405  675]	[ 90 570 405 675]
672.603	6.0	3582795	3588826	ShowFixation	VGS	106	4	False	lime	180	[405 885 405 675]	[1035 1515  405  675]
678.634	0.2	3588826	3589066	BlankScreen	VGS	106	4	False	lime	180	[405 885 405 675]	[1035 1515  405  675]
678.874	1.0	3589066	3590066	ELCue	VGS	106	4	False	lime	180	[405 885 405 675]	[1035 1515  405  675]
680.293	2.0	3590485	3592517	ShowFixation	ANTI	107	4	False	red	600	[ 90 570 405 675]	[1350 1830  405  675]
682.325	0.2	3592517	3592753	BlankScreen	ANTI	107	4	False	red	600	[ 90 570 405 675]	[1350 1830  405  675]
682.561	1.0	3592753	3593753	ELCue	ANTI	107	4	False	red	600	[ 90 570 405 675]	[1350 1830  405  675]
683.978	2.0	3594170	3596204	ShowFixation	ANTI	108	4	False	red	180	[1035 1515  405  675]	[405 885 405 675]
686.012	0.2	3596204	3596440	BlankScreen	ANTI	108	4	False	red	180	[1035 1515  405  675]	[405 885 405 675]
686.248	1.0	3596440	3597440	ELCue	ANTI	108	4	False	red	180	[1035 1515  405  675]	[405 885 405 675]
687.672	6.0	3597864	3603891	ShowFixation	VGS	109	4	False	lime	40	[ 90 570 405 675]	[1350 1830  405  675]
693.699	0.2	3603891	3604131	BlankScreen	VGS	109	4	False	lime	40	[ 90 570 405 675]	[1350 1830  405  675]
693.939	1.0	3604131	3605131	ELCue	VGS	109	4	False	lime	40	[ 90 570 405 675]	[1350 1830  405  675]
695.36	2.0	3605552	3607582	ShowFixation	VGS	110	4	False	lime	180	[405 885 405 675]	[1035 1515  405  675]
697.391	0.2	3607583	3607817	BlankScreen	VGS	110	4	False	lime	180	[405 885 405 675]	[1035 1515  405  675]
697.625	1.0	3607817	3608817	ELCue	VGS	110	4	False	lime	180	[405 885 405 675]	[1035 1515  405  675]
699.051	6.0	3609243	3615269	ShowFixation	ANTI	111	4	False	red	600	[ 90 570 405 675]	[1350 1830  405  675]
705.078	0.2	3615270	3615509	BlankScreen	ANTI	111	4	False	red	600	[ 90 570 405 675]	[1350 1830  405  675]
705.317	1.0	3615509	3616509	ELCue	ANTI	111	4	False	red	600	[ 90 570 405 675]	[1350 1830  405  675]
706.74	2.0	3616932	3618961	ShowFixation	VGS	112	4	False	lime	600	[1350 1830  405  675]	[ 90 570 405 675]
708.769	0.2	3618961	3619196	BlankScreen	VGS	112	4	False	lime	600	[1350 1830  405  675]	[ 90 570 405 675]
709.004	1.0	3619196	3620196	ELCue	VGS	112	4	False	lime	600	[1350 1830  405  675]	[ 90 570 405 675]
