onset	duration	startTime	stopTime	eventIdentifier	trial_type	trial_number	block_number	is_practice	fixation_color	cue_side	aoi_correct	aoi_incorrect
0.145	6.0	9233333	9239364	ShowFixation	ANTI	1	1	True	red	460	[405 885 405 675]	[1035 1515  405  675]
6.176	0.2	9239364	9239603	BlankScreen	ANTI	1	1	True	red	460	[405 885 405 675]	[1035 1515  405  675]
6.415	1.0	9239603	9240644	ELCue	ANTI	1	1	True	red	460	[405 885 405 675]	[1035 1515  405  675]
7.862	6.0	9241050	9247688	ShowFixation	VGS	2	1	True	lime	40	[ 90 570 405 675]	[1350 1830  405  675]
14.5	0.2	9247688	9247928	BlankScreen	VGS	2	1	True	lime	40	[ 90 570 405 675]	[1350 1830  405  675]
14.74	1.0	9247928	9248968	ELCue	VGS	2	1	True	lime	40	[ 90 570 405 675]	[1350 1830  405  675]
16.187	2.0	9249375	9251997	ShowFixation	VGS	3	1	True	lime	180	[405 885 405 675]	[1035 1515  405  675]
18.809	0.2	9251997	9252215	BlankScreen	VGS	3	1	True	lime	180	[405 885 405 675]	[1035 1515  405  675]
19.027	1.0	9252215	9253239	ELCue	VGS	3	1	True	lime	180	[405 885 405 675]	[1035 1515  405  675]
20.457	6.0	9253645	9260284	ShowFixation	ANTI	4	1	True	red	40	[1350 1830  405  675]	[ 90 570 405 675]
27.096	0.2	9260284	9260524	BlankScreen	ANTI	4	1	True	red	40	[1350 1830  405  675]	[ 90 570 405 675]
27.336	1.0	9260524	9261564	ELCue	ANTI	4	1	True	red	40	[1350 1830  405  675]	[ 90 570 405 675]
28.828	6.0	9262016	9268609	ShowFixation	VGS	5	1	True	lime	460	[1035 1515  405  675]	[405 885 405 675]
35.421	0.2	9268609	9268848	BlankScreen	VGS	5	1	True	lime	460	[1035 1515  405  675]	[405 885 405 675]
35.66	1.0	9268848	9269889	ELCue	VGS	5	1	True	lime	460	[1035 1515  405  675]	[405 885 405 675]
37.106	2.0	9270294	9272934	ShowFixation	ANTI	6	1	True	red	600	[ 90 570 405 675]	[1350 1830  405  675]
39.746	0.2	9272934	9273169	BlankScreen	ANTI	6	1	True	red	600	[ 90 570 405 675]	[1350 1830  405  675]
39.981	1.0	9273169	9274207	ELCue	ANTI	6	1	True	red	600	[ 90 570 405 675]	[1350 1830  405  675]
41.413	2.0	9274601	9277222	ShowFixation	VGS	7	1	True	lime	40	[ 90 570 405 675]	[1350 1830  405  675]
44.034	0.2	9277222	9277440	BlankScreen	VGS	7	1	True	lime	40	[ 90 570 405 675]	[1350 1830  405  675]
44.252	1.0	9277440	9278464	ELCue	VGS	7	1	True	lime	40	[ 90 570 405 675]	[1350 1830  405  675]
45.664	2.0	9278852	9281509	ShowFixation	ANTI	8	1	True	red	40	[1350 1830  405  675]	[ 90 570 405 675]
48.321	0.2	9281509	9281745	BlankScreen	ANTI	8	1	True	red	40	[1350 1830  405  675]	[ 90 570 405 675]
48.557	1.0	9281745	9282783	ELCue	ANTI	8	1	True	red	40	[1350 1830  405  675]	[ 90 570 405 675]
49.988	6.0	9283176	9289797	ShowFixation	VGS	9	1	True	lime	180	[405 885 405 675]	[1035 1515  405  675]
56.609	0.2	9289797	9290036	BlankScreen	VGS	9	1	True	lime	180	[405 885 405 675]	[1035 1515  405  675]
56.848	1.0	9290036	9291077	ELCue	VGS	9	1	True	lime	180	[405 885 405 675]	[1035 1515  405  675]
58.278	2.0	9291466	9294122	ShowFixation	VGS	10	1	True	lime	600	[1350 1830  405  675]	[ 90 570 405 675]
60.935	0.2	9294123	9294357	BlankScreen	VGS	10	1	True	lime	600	[1350 1830  405  675]	[ 90 570 405 675]
61.17	1.0	9294358	9295398	ELCue	VGS	10	1	True	lime	600	[1350 1830  405  675]	[ 90 570 405 675]
62.614	2.0	9295802	9298427	ShowFixation	VGS	11	1	True	lime	460	[1035 1515  405  675]	[405 885 405 675]
65.239	0.2	9298427	9298646	BlankScreen	VGS	11	1	True	lime	460	[1035 1515  405  675]	[405 885 405 675]
65.458	1.0	9298646	9299668	ELCue	VGS	11	1	True	lime	460	[1035 1515  405  675]	[405 885 405 675]
66.886	6.0	9300074	9306714	ShowFixation	ANTI	12	1	True	red	180	[1035 1515  405  675]	[405 885 405 675]
73.526	0.2	9306714	9306954	BlankScreen	ANTI	12	1	True	red	180	[1035 1515  405  675]	[405 885 405 675]
73.766	1.0	9306954	9307991	ELCue	ANTI	12	1	True	red	180	[1035 1515  405  675]	[405 885 405 675]
75.21	6.0	9308398	9315039	ShowFixation	VGS	13	1	True	lime	600	[1350 1830  405  675]	[ 90 570 405 675]
81.851	0.2	9315039	9315279	BlankScreen	VGS	13	1	True	lime	600	[1350 1830  405  675]	[ 90 570 405 675]
82.091	1.0	9315279	9316319	ELCue	VGS	13	1	True	lime	600	[1350 1830  405  675]	[ 90 570 405 675]
83.535	2.0	9316723	9319364	ShowFixation	ANTI	14	1	True	red	460	[405 885 405 675]	[1035 1515  405  675]
86.176	0.2	9319364	9319600	BlankScreen	ANTI	14	1	True	red	460	[405 885 405 675]	[1035 1515  405  675]
86.412	1.0	9319600	9320639	ELCue	ANTI	14	1	True	red	460	[405 885 405 675]	[1035 1515  405  675]
87.857	6.0	9321045	9327668	ShowFixation	ANTI	15	1	True	red	600	[ 90 570 405 675]	[1350 1830  405  675]
94.48	0.2	9327668	9327908	BlankScreen	ANTI	15	1	True	red	600	[ 90 570 405 675]	[1350 1830  405  675]
94.72	1.0	9327908	9328948	ELCue	ANTI	15	1	True	red	600	[ 90 570 405 675]	[1350 1830  405  675]
96.146	2.0	9329334	9331977	ShowFixation	ANTI	16	1	True	red	180	[1035 1515  405  675]	[405 885 405 675]
98.789	0.2	9331977	9332195	BlankScreen	ANTI	16	1	True	red	180	[1035 1515  405  675]	[405 885 405 675]
99.007	1.0	9332195	9333216	ELCue	ANTI	16	1	True	red	180	[1035 1515  405  675]	[405 885 405 675]
125.329	6.0	9358517	9364555	ShowFixation	VGS	17	2	False	lime	460	[1035 1515  405  675]	[405 885 405 675]
131.367	0.2	9364555	9364794	BlankScreen	VGS	17	2	False	lime	460	[1035 1515  405  675]	[405 885 405 675]
131.606	1.0	9364794	9365794	ELCue	VGS	17	2	False	lime	460	[1035 1515  405  675]	[405 885 405 675]
133.015	6.0	9366203	9372229	ShowFixation	ANTI	18	2	False	red	40	[1350 1830  405  675]	[ 90 570 405 675]
139.041	0.2	9372229	9372468	BlankScreen	ANTI	18	2	False	red	40	[1350 1830  405  675]	[ 90 570 405 675]
139.28	1.0	9372468	9373468	ELCue	ANTI	18	2	False	red	40	[1350 1830  405  675]	[ 90 570 405 675]
140.688	2.0	9373876	9375903	ShowFixation	VGS	19	2	False	lime	460	[1035 1515  405  675]	[405 885 405 675]
142.715	0.2	9375903	9376139	BlankScreen	VGS	19	2	False	lime	460	[1035 1515  405  675]	[405 885 405 675]
142.951	1.0	9376139	9377139	ELCue	VGS	19	2	False	lime	460	[1035 1515  405  675]	[405 885 405 675]
144.355	2.0	9377543	9379574	ShowFixation	ANTI	20	2	False	red	180	[1035 1515  405  675]	[405 885 405 675]
146.386	0.2	9379574	9379809	BlankScreen	ANTI	20	2	False	red	180	[1035 1515  405  675]	[405 885 405 675]
146.621	1.0	9379809	9380809	ELCue	ANTI	20	2	False	red	180	[1035 1515  405  675]	[405 885 405 675]
148.027	6.0	9381215	9387244	ShowFixation	ANTI	21	2	False	red	600	[ 90 570 405 675]	[1350 1830  405  675]
154.056	0.2	9387244	9387483	BlankScreen	ANTI	21	2	False	red	600	[ 90 570 405 675]	[1350 1830  405  675]
154.295	1.0	9387483	9388483	ELCue	ANTI	21	2	False	red	600	[ 90 570 405 675]	[1350 1830  405  675]
155.706	6.0	9388894	9394918	ShowFixation	ANTI	22	2	False	red	460	[405 885 405 675]	[1035 1515  405  675]
161.73	0.2	9394918	9395157	BlankScreen	ANTI	22	2	False	red	460	[405 885 405 675]	[1035 1515  405  675]
161.969	1.0	9395157	9396157	ELCue	ANTI	22	2	False	red	460	[405 885 405 675]	[1035 1515  405  675]
163.379	2.0	9396567	9398592	ShowFixation	VGS	23	2	False	lime	180	[405 885 405 675]	[1035 1515  405  675]
165.404	0.2	9398592	9398828	BlankScreen	VGS	23	2	False	lime	180	[405 885 405 675]	[1035 1515  405  675]
165.64	1.0	9398828	9399828	ELCue	VGS	23	2	False	lime	180	[405 885 405 675]	[1035 1515  405  675]
167.052	6.0	9400240	9406279	ShowFixation	VGS	24	2	False	lime	600	[1350 1830  405  675]	[ 90 570 405 675]
173.091	0.2	9406279	9406519	BlankScreen	VGS	24	2	False	lime	600	[1350 1830  405  675]	[ 90 570 405 675]
173.331	1.0	9406519	9407519	ELCue	VGS	24	2	False	lime	600	[1350 1830  405  675]	[ 90 570 405 675]
174.743	2.0	9407931	9409970	ShowFixation	ANTI	25	2	False	red	460	[405 885 405 675]	[1035 1515  405  675]
176.782	0.2	9409970	9410206	BlankScreen	ANTI	25	2	False	red	460	[405 885 405 675]	[1035 1515  405  675]
177.018	1.0	9410206	9411206	ELCue	ANTI	25	2	False	red	460	[405 885 405 675]	[1035 1515  405  675]
178.428	6.0	9411616	9417641	ShowFixation	VGS	26	2	False	lime	40	[ 90 570 405 675]	[1350 1830  405  675]
184.453	0.2	9417641	9417880	BlankScreen	VGS	26	2	False	lime	40	[ 90 570 405 675]	[1350 1830  405  675]
184.692	1.0	9417880	9418880	ELCue	VGS	26	2	False	lime	40	[ 90 570 405 675]	[1350 1830  405  675]
186.096	2.0	9419284	9421315	ShowFixation	ANTI	27	2	False	red	40	[1350 1830  405  675]	[ 90 570 405 675]
188.127	0.2	9421315	9421550	BlankScreen	ANTI	27	2	False	red	40	[1350 1830  405  675]	[ 90 570 405 675]
188.362	1.0	9421550	9422550	ELCue	ANTI	27	2	False	red	40	[1350 1830  405  675]	[ 90 570 405 675]
189.766	2.0	9422954	9424985	ShowFixation	VGS	28	2	False	lime	180	[405 885 405 675]	[1035 1515  405  675]
191.797	0.2	9424985	9425220	BlankScreen	VGS	28	2	False	lime	180	[405 885 405 675]	[1035 1515  405  675]
192.032	1.0	9425220	9426220	ELCue	VGS	28	2	False	lime	180	[405 885 405 675]	[1035 1515  405  675]
193.423	6.0	9426611	9432639	ShowFixation	VGS	29	2	False	lime	600	[1350 1830  405  675]	[ 90 570 405 675]
199.452	0.2	9432640	9432878	BlankScreen	VGS	29	2	False	lime	600	[1350 1830  405  675]	[ 90 570 405 675]
199.69	1.0	9432878	9433878	ELCue	VGS	29	2	False	lime	600	[1350 1830  405  675]	[ 90 570 405 675]
201.095	6.0	9434283	9440314	ShowFixation	ANTI	30	2	False	red	600	[ 90 570 405 675]	[1350 1830  405  675]
207.126	0.2	9440314	9440553	BlankScreen	ANTI	30	2	False	red	600	[ 90 570 405 675]	[1350 1830  405  675]
207.365	1.0	9440553	9441553	ELCue	ANTI	30	2	False	red	600	[ 90 570 405 675]	[1350 1830  405  675]
208.774	2.0	9441962	9443988	ShowFixation	ANTI	31	2	False	red	600	[ 90 570 405 675]	[1350 1830  405  675]
210.8	0.2	9443988	9444223	BlankScreen	ANTI	31	2	False	red	600	[ 90 570 405 675]	[1350 1830  405  675]
211.036	1.0	9444224	9445224	ELCue	ANTI	31	2	False	red	600	[ 90 570 405 675]	[1350 1830  405  675]
212.446	2.0	9445634	9447675	ShowFixation	ANTI	32	2	False	red	600	[ 90 570 405 675]	[1350 1830  405  675]
214.487	0.2	9447675	9447911	BlankScreen	ANTI	32	2	False	red	600	[ 90 570 405 675]	[1350 1830  405  675]
214.723	1.0	9447911	9448911	ELCue	ANTI	32	2	False	red	600	[ 90 570 405 675]	[1350 1830  405  675]
216.132	2.0	9449320	9451345	ShowFixation	VGS	33	2	False	lime	600	[1350 1830  405  675]	[ 90 570 405 675]
218.157	0.2	9451345	9451581	BlankScreen	VGS	33	2	False	lime	600	[1350 1830  405  675]	[ 90 570 405 675]
218.393	1.0	9451581	9452581	ELCue	VGS	33	2	False	lime	600	[1350 1830  405  675]	[ 90 570 405 675]
219.783	6.0	9452971	9458999	ShowFixation	ANTI	34	2	False	red	180	[1035 1515  405  675]	[405 885 405 675]
225.811	0.2	9458999	9459238	BlankScreen	ANTI	34	2	False	red	180	[1035 1515  405  675]	[405 885 405 675]
226.05	1.0	9459238	9460238	ELCue	ANTI	34	2	False	red	180	[1035 1515  405  675]	[405 885 405 675]
227.441	6.0	9460629	9466657	ShowFixation	ANTI	35	2	False	red	460	[405 885 405 675]	[1035 1515  405  675]
233.469	0.2	9466657	9466896	BlankScreen	ANTI	35	2	False	red	460	[405 885 405 675]	[1035 1515  405  675]
233.708	1.0	9466896	9467896	ELCue	ANTI	35	2	False	red	460	[405 885 405 675]	[1035 1515  405  675]
235.113	2.0	9468301	9470331	ShowFixation	VGS	36	2	False	lime	40	[ 90 570 405 675]	[1350 1830  405  675]
237.143	0.2	9470331	9470566	BlankScreen	VGS	36	2	False	lime	40	[ 90 570 405 675]	[1350 1830  405  675]
237.378	1.0	9470566	9471566	ELCue	VGS	36	2	False	lime	40	[ 90 570 405 675]	[1350 1830  405  675]
238.787	6.0	9471975	9478001	ShowFixation	ANTI	37	2	False	red	40	[1350 1830  405  675]	[ 90 570 405 675]
244.813	0.2	9478001	9478240	BlankScreen	ANTI	37	2	False	red	40	[1350 1830  405  675]	[ 90 570 405 675]
245.052	1.0	9478240	9479240	ELCue	ANTI	37	2	False	red	40	[1350 1830  405  675]	[ 90 570 405 675]
246.46	6.0	9479648	9485675	ShowFixation	VGS	38	2	False	lime	180	[405 885 405 675]	[1035 1515  405  675]
252.487	0.2	9485675	9485915	BlankScreen	VGS	38	2	False	lime	180	[405 885 405 675]	[1035 1515  405  675]
252.727	1.0	9485915	9486915	ELCue	VGS	38	2	False	lime	180	[405 885 405 675]	[1035 1515  405  675]
254.133	2.0	9487321	9489350	ShowFixation	ANTI	39	2	False	red	460	[405 885 405 675]	[1035 1515  405  675]
256.162	0.2	9489350	9489585	BlankScreen	ANTI	39	2	False	red	460	[405 885 405 675]	[1035 1515  405  675]
256.397	1.0	9489585	9490585	ELCue	ANTI	39	2	False	red	460	[405 885 405 675]	[1035 1515  405  675]
257.808	6.0	9490996	9497037	ShowFixation	ANTI	40	2	False	red	180	[1035 1515  405  675]	[405 885 405 675]
263.849	0.2	9497037	9497276	BlankScreen	ANTI	40	2	False	red	180	[1035 1515  405  675]	[405 885 405 675]
264.088	1.0	9497276	9498276	ELCue	ANTI	40	2	False	red	180	[1035 1515  405  675]	[405 885 405 675]
265.491	2.0	9498679	9500711	ShowFixation	VGS	41	2	False	lime	40	[ 90 570 405 675]	[1350 1830  405  675]
267.523	0.2	9500711	9500946	BlankScreen	VGS	41	2	False	lime	40	[ 90 570 405 675]	[1350 1830  405  675]
267.758	1.0	9500946	9501946	ELCue	VGS	41	2	False	lime	40	[ 90 570 405 675]	[1350 1830  405  675]
269.167	2.0	9502355	9504381	ShowFixation	VGS	42	2	False	lime	460	[1035 1515  405  675]	[405 885 405 675]
271.193	0.2	9504381	9504617	BlankScreen	VGS	42	2	False	lime	460	[1035 1515  405  675]	[405 885 405 675]
271.429	1.0	9504617	9505617	ELCue	VGS	42	2	False	lime	460	[1035 1515  405  675]	[405 885 405 675]
272.817	2.0	9506005	9508035	ShowFixation	ANTI	43	2	False	red	180	[1035 1515  405  675]	[405 885 405 675]
274.847	0.2	9508035	9508270	BlankScreen	ANTI	43	2	False	red	180	[1035 1515  405  675]	[405 885 405 675]
275.082	1.0	9508270	9509270	ELCue	ANTI	43	2	False	red	180	[1035 1515  405  675]	[405 885 405 675]
276.474	6.0	9509662	9515688	ShowFixation	VGS	44	2	False	lime	180	[405 885 405 675]	[1035 1515  405  675]
282.5	0.2	9515688	9515928	BlankScreen	VGS	44	2	False	lime	180	[405 885 405 675]	[1035 1515  405  675]
282.74	1.0	9515928	9516928	ELCue	VGS	44	2	False	lime	180	[405 885 405 675]	[1035 1515  405  675]
284.15	6.0	9517338	9523379	ShowFixation	VGS	45	2	False	lime	460	[1035 1515  405  675]	[405 885 405 675]
290.191	0.2	9523379	9523619	BlankScreen	VGS	45	2	False	lime	460	[1035 1515  405  675]	[405 885 405 675]
290.431	1.0	9523619	9524619	ELCue	VGS	45	2	False	lime	460	[1035 1515  405  675]	[405 885 405 675]
291.839	2.0	9525027	9527054	ShowFixation	ANTI	46	2	False	red	40	[1350 1830  405  675]	[ 90 570 405 675]
293.866	0.2	9527054	9527289	BlankScreen	ANTI	46	2	False	red	40	[1350 1830  405  675]	[ 90 570 405 675]
294.101	1.0	9527289	9528289	ELCue	ANTI	46	2	False	red	40	[1350 1830  405  675]	[ 90 570 405 675]
295.504	6.0	9528692	9534724	ShowFixation	VGS	47	2	False	lime	40	[ 90 570 405 675]	[1350 1830  405  675]
301.536	0.2	9534724	9534963	BlankScreen	VGS	47	2	False	lime	40	[ 90 570 405 675]	[1350 1830  405  675]
301.775	1.0	9534963	9535963	ELCue	VGS	47	2	False	lime	40	[ 90 570 405 675]	[1350 1830  405  675]
303.184	2.0	9536372	9538398	ShowFixation	VGS	48	2	False	lime	600	[1350 1830  405  675]	[ 90 570 405 675]
305.21	0.2	9538398	9538633	BlankScreen	VGS	48	2	False	lime	600	[1350 1830  405  675]	[ 90 570 405 675]
305.445	1.0	9538633	9539633	ELCue	VGS	48	2	False	lime	600	[1350 1830  405  675]	[ 90 570 405 675]
369.105	6.0	9602293	9608331	ShowFixation	VGS	49	3	False	lime	40	[ 90 570 405 675]	[1350 1830  405  675]
375.143	0.2	9608331	9608570	BlankScreen	VGS	49	3	False	lime	40	[ 90 570 405 675]	[1350 1830  405  675]
375.382	1.0	9608570	9609570	ELCue	VGS	49	3	False	lime	40	[ 90 570 405 675]	[1350 1830  405  675]
376.793	6.0	9609981	9616022	ShowFixation	VGS	50	3	False	lime	460	[1035 1515  405  675]	[405 885 405 675]
382.834	0.2	9616022	9616261	BlankScreen	VGS	50	3	False	lime	460	[1035 1515  405  675]	[405 885 405 675]
383.073	1.0	9616261	9617261	ELCue	VGS	50	3	False	lime	460	[1035 1515  405  675]	[405 885 405 675]
384.484	2.0	9617672	9619713	ShowFixation	VGS	51	3	False	lime	600	[1350 1830  405  675]	[ 90 570 405 675]
386.525	0.2	9619713	9619948	BlankScreen	VGS	51	3	False	lime	600	[1350 1830  405  675]	[ 90 570 405 675]
386.76	1.0	9619948	9620948	ELCue	VGS	51	3	False	lime	600	[1350 1830  405  675]	[ 90 570 405 675]
388.15	2.0	9621338	9623366	ShowFixation	ANTI	52	3	False	red	40	[1350 1830  405  675]	[ 90 570 405 675]
390.178	0.2	9623366	9623602	BlankScreen	ANTI	52	3	False	red	40	[1350 1830  405  675]	[ 90 570 405 675]
390.414	1.0	9623602	9624602	ELCue	ANTI	52	3	False	red	40	[1350 1830  405  675]	[ 90 570 405 675]
391.819	2.0	9625007	9627037	ShowFixation	VGS	53	3	False	lime	460	[1035 1515  405  675]	[405 885 405 675]
393.849	0.2	9627037	9627272	BlankScreen	VGS	53	3	False	lime	460	[1035 1515  405  675]	[405 885 405 675]
394.084	1.0	9627272	9628272	ELCue	VGS	53	3	False	lime	460	[1035 1515  405  675]	[405 885 405 675]
395.492	6.0	9628680	9634707	ShowFixation	ANTI	54	3	False	red	180	[1035 1515  405  675]	[405 885 405 675]
401.519	0.2	9634707	9634946	BlankScreen	ANTI	54	3	False	red	180	[1035 1515  405  675]	[405 885 405 675]
401.758	1.0	9634946	9635946	ELCue	ANTI	54	3	False	red	180	[1035 1515  405  675]	[405 885 405 675]
403.166	6.0	9636354	9642381	ShowFixation	VGS	55	3	False	lime	600	[1350 1830  405  675]	[ 90 570 405 675]
409.193	0.2	9642381	9642620	BlankScreen	VGS	55	3	False	lime	600	[1350 1830  405  675]	[ 90 570 405 675]
409.432	1.0	9642620	9643620	ELCue	VGS	55	3	False	lime	600	[1350 1830  405  675]	[ 90 570 405 675]
410.837	6.0	9644025	9650055	ShowFixation	VGS	56	3	False	lime	180	[405 885 405 675]	[1035 1515  405  675]
416.867	0.2	9650055	9650295	BlankScreen	VGS	56	3	False	lime	180	[405 885 405 675]	[1035 1515  405  675]
417.107	1.0	9650295	9651295	ELCue	VGS	56	3	False	lime	180	[405 885 405 675]	[1035 1515  405  675]
418.511	6.0	9651699	9657730	ShowFixation	ANTI	57	3	False	red	180	[1035 1515  405  675]	[405 885 405 675]
424.542	0.2	9657730	9657969	BlankScreen	ANTI	57	3	False	red	180	[1035 1515  405  675]	[405 885 405 675]
424.781	1.0	9657969	9658969	ELCue	ANTI	57	3	False	red	180	[1035 1515  405  675]	[405 885 405 675]
426.194	6.0	9659382	9665421	ShowFixation	VGS	58	3	False	lime	460	[1035 1515  405  675]	[405 885 405 675]
432.233	0.2	9665421	9665660	BlankScreen	VGS	58	3	False	lime	460	[1035 1515  405  675]	[405 885 405 675]
432.472	1.0	9665660	9666660	ELCue	VGS	58	3	False	lime	460	[1035 1515  405  675]	[405 885 405 675]
433.875	2.0	9667063	9669095	ShowFixation	VGS	59	3	False	lime	180	[405 885 405 675]	[1035 1515  405  675]
435.907	0.2	9669095	9669330	BlankScreen	VGS	59	3	False	lime	180	[405 885 405 675]	[1035 1515  405  675]
436.142	1.0	9669330	9670330	ELCue	VGS	59	3	False	lime	180	[405 885 405 675]	[1035 1515  405  675]
437.543	2.0	9670731	9672765	ShowFixation	ANTI	60	3	False	red	40	[1350 1830  405  675]	[ 90 570 405 675]
439.577	0.2	9672765	9673000	BlankScreen	ANTI	60	3	False	red	40	[1350 1830  405  675]	[ 90 570 405 675]
439.812	1.0	9673000	9674000	ELCue	ANTI	60	3	False	red	40	[1350 1830  405  675]	[ 90 570 405 675]
441.221	6.0	9674409	9680435	ShowFixation	ANTI	61	3	False	red	460	[405 885 405 675]	[1035 1515  405  675]
447.247	0.2	9680435	9680675	BlankScreen	ANTI	61	3	False	red	460	[405 885 405 675]	[1035 1515  405  675]
447.487	1.0	9680675	9681675	ELCue	ANTI	61	3	False	red	460	[405 885 405 675]	[1035 1515  405  675]
448.892	2.0	9682080	9684110	ShowFixation	VGS	62	3	False	lime	460	[1035 1515  405  675]	[405 885 405 675]
450.922	0.2	9684110	9684345	BlankScreen	VGS	62	3	False	lime	460	[1035 1515  405  675]	[405 885 405 675]
451.157	1.0	9684345	9685345	ELCue	VGS	62	3	False	lime	460	[1035 1515  405  675]	[405 885 405 675]
452.568	6.0	9685756	9691797	ShowFixation	ANTI	63	3	False	red	600	[ 90 570 405 675]	[1350 1830  405  675]
458.609	0.2	9691797	9692036	BlankScreen	ANTI	63	3	False	red	600	[ 90 570 405 675]	[1350 1830  405  675]
458.848	1.0	9692036	9693036	ELCue	ANTI	63	3	False	red	600	[ 90 570 405 675]	[1350 1830  405  675]
460.258	2.0	9693446	9695471	ShowFixation	ANTI	64	3	False	red	180	[1035 1515  405  675]	[405 885 405 675]
462.283	0.2	9695471	9695706	BlankScreen	ANTI	64	3	False	red	180	[1035 1515  405  675]	[405 885 405 675]
462.518	1.0	9695706	9696706	ELCue	ANTI	64	3	False	red	180	[1035 1515  405  675]	[405 885 405 675]
463.91	6.0	9697098	9703124	ShowFixation	ANTI	65	3	False	red	460	[405 885 405 675]	[1035 1515  405  675]
469.936	0.2	9703124	9703364	BlankScreen	ANTI	65	3	False	red	460	[405 885 405 675]	[1035 1515  405  675]
470.176	1.0	9703364	9704364	ELCue	ANTI	65	3	False	red	460	[405 885 405 675]	[1035 1515  405  675]
471.568	2.0	9704756	9706782	ShowFixation	VGS	66	3	False	lime	600	[1350 1830  405  675]	[ 90 570 405 675]
473.594	0.2	9706782	9707017	BlankScreen	VGS	66	3	False	lime	600	[1350 1830  405  675]	[ 90 570 405 675]
473.829	1.0	9707017	9708017	ELCue	VGS	66	3	False	lime	600	[1350 1830  405  675]	[ 90 570 405 675]
475.243	6.0	9708431	9714469	ShowFixation	VGS	67	3	False	lime	600	[1350 1830  405  675]	[ 90 570 405 675]
481.281	0.2	9714469	9714708	BlankScreen	VGS	67	3	False	lime	600	[1350 1830  405  675]	[ 90 570 405 675]
481.52	1.0	9714708	9715708	ELCue	VGS	67	3	False	lime	600	[1350 1830  405  675]	[ 90 570 405 675]
482.93	2.0	9716118	9718143	ShowFixation	VGS	68	3	False	lime	180	[405 885 405 675]	[1035 1515  405  675]
484.955	0.2	9718143	9718379	BlankScreen	VGS	68	3	False	lime	180	[405 885 405 675]	[1035 1515  405  675]
485.191	1.0	9718379	9719379	ELCue	VGS	68	3	False	lime	180	[405 885 405 675]	[1035 1515  405  675]
486.597	6.0	9719785	9725813	ShowFixation	ANTI	69	3	False	red	40	[1350 1830  405  675]	[ 90 570 405 675]
492.625	0.2	9725813	9726053	BlankScreen	ANTI	69	3	False	red	40	[1350 1830  405  675]	[ 90 570 405 675]
492.865	1.0	9726053	9727053	ELCue	ANTI	69	3	False	red	40	[1350 1830  405  675]	[ 90 570 405 675]
494.271	6.0	9727459	9733488	ShowFixation	VGS	70	3	False	lime	180	[405 885 405 675]	[1035 1515  405  675]
500.3	0.2	9733488	9733727	BlankScreen	VGS	70	3	False	lime	180	[405 885 405 675]	[1035 1515  405  675]
500.539	1.0	9733727	9734727	ELCue	VGS	70	3	False	lime	180	[405 885 405 675]	[1035 1515  405  675]
501.949	2.0	9735137	9737162	ShowFixation	VGS	71	3	False	lime	40	[ 90 570 405 675]	[1350 1830  405  675]
503.975	0.2	9737163	9737397	BlankScreen	VGS	71	3	False	lime	40	[ 90 570 405 675]	[1350 1830  405  675]
504.21	1.0	9737398	9738398	ELCue	VGS	71	3	False	lime	40	[ 90 570 405 675]	[1350 1830  405  675]
505.619	2.0	9738807	9740832	ShowFixation	ANTI	72	3	False	red	460	[405 885 405 675]	[1035 1515  405  675]
507.645	0.2	9740833	9741068	BlankScreen	ANTI	72	3	False	red	460	[405 885 405 675]	[1035 1515  405  675]
507.881	1.0	9741069	9742069	ELCue	ANTI	72	3	False	red	460	[405 885 405 675]	[1035 1515  405  675]
509.292	6.0	9742480	9748520	ShowFixation	ANTI	73	3	False	red	40	[1350 1830  405  675]	[ 90 570 405 675]
515.332	0.2	9748520	9748760	BlankScreen	ANTI	73	3	False	red	40	[1350 1830  405  675]	[ 90 570 405 675]
515.572	1.0	9748760	9749760	ELCue	ANTI	73	3	False	red	40	[1350 1830  405  675]	[ 90 570 405 675]
516.979	2.0	9750167	9752194	ShowFixation	ANTI	74	3	False	red	600	[ 90 570 405 675]	[1350 1830  405  675]
519.006	0.2	9752194	9752430	BlankScreen	ANTI	74	3	False	red	600	[ 90 570 405 675]	[1350 1830  405  675]
519.242	1.0	9752430	9753430	ELCue	ANTI	74	3	False	red	600	[ 90 570 405 675]	[1350 1830  405  675]
520.649	2.0	9753837	9755865	ShowFixation	VGS	75	3	False	lime	40	[ 90 570 405 675]	[1350 1830  405  675]
522.677	0.2	9755865	9756100	BlankScreen	VGS	75	3	False	lime	40	[ 90 570 405 675]	[1350 1830  405  675]
522.912	1.0	9756100	9757100	ELCue	VGS	75	3	False	lime	40	[ 90 570 405 675]	[1350 1830  405  675]
524.317	2.0	9757505	9759535	ShowFixation	ANTI	76	3	False	red	600	[ 90 570 405 675]	[1350 1830  405  675]
526.347	0.2	9759535	9759770	BlankScreen	ANTI	76	3	False	red	600	[ 90 570 405 675]	[1350 1830  405  675]
526.582	1.0	9759770	9760770	ELCue	ANTI	76	3	False	red	600	[ 90 570 405 675]	[1350 1830  405  675]
527.99	2.0	9761178	9763205	ShowFixation	ANTI	77	3	False	red	460	[405 885 405 675]	[1035 1515  405  675]
530.017	0.2	9763205	9763441	BlankScreen	ANTI	77	3	False	red	460	[405 885 405 675]	[1035 1515  405  675]
530.253	1.0	9763441	9764441	ELCue	ANTI	77	3	False	red	460	[405 885 405 675]	[1035 1515  405  675]
531.655	2.0	9764843	9766876	ShowFixation	ANTI	78	3	False	red	180	[1035 1515  405  675]	[405 885 405 675]
533.688	0.2	9766876	9767111	BlankScreen	ANTI	78	3	False	red	180	[1035 1515  405  675]	[405 885 405 675]
533.923	1.0	9767111	9768111	ELCue	ANTI	78	3	False	red	180	[1035 1515  405  675]	[405 885 405 675]
535.331	6.0	9768519	9774546	ShowFixation	VGS	79	3	False	lime	40	[ 90 570 405 675]	[1350 1830  405  675]
541.358	0.2	9774546	9774785	BlankScreen	VGS	79	3	False	lime	40	[ 90 570 405 675]	[1350 1830  405  675]
541.597	1.0	9774785	9775785	ELCue	VGS	79	3	False	lime	40	[ 90 570 405 675]	[1350 1830  405  675]
543.007	6.0	9776195	9782220	ShowFixation	ANTI	80	3	False	red	600	[ 90 570 405 675]	[1350 1830  405  675]
549.032	0.2	9782220	9782459	BlankScreen	ANTI	80	3	False	red	600	[ 90 570 405 675]	[1350 1830  405  675]
549.271	1.0	9782459	9783459	ELCue	ANTI	80	3	False	red	600	[ 90 570 405 675]	[1350 1830  405  675]
574.602	6.0	9807790	9813818	ShowFixation	VGS	81	4	False	lime	460	[1035 1515  405  675]	[405 885 405 675]
580.63	0.2	9813818	9814057	BlankScreen	VGS	81	4	False	lime	460	[1035 1515  405  675]	[405 885 405 675]
580.869	1.0	9814057	9815057	ELCue	VGS	81	4	False	lime	460	[1035 1515  405  675]	[405 885 405 675]
582.271	6.0	9815459	9821492	ShowFixation	VGS	82	4	False	lime	600	[1350 1830  405  675]	[ 90 570 405 675]
588.304	0.2	9821492	9821732	BlankScreen	VGS	82	4	False	lime	600	[1350 1830  405  675]	[ 90 570 405 675]
588.544	1.0	9821732	9822732	ELCue	VGS	82	4	False	lime	600	[1350 1830  405  675]	[ 90 570 405 675]
589.945	2.0	9823133	9825167	ShowFixation	VGS	83	4	False	lime	180	[405 885 405 675]	[1035 1515  405  675]
591.979	0.2	9825167	9825402	BlankScreen	VGS	83	4	False	lime	180	[405 885 405 675]	[1035 1515  405  675]
592.214	1.0	9825402	9826402	ELCue	VGS	83	4	False	lime	180	[405 885 405 675]	[1035 1515  405  675]
593.616	6.0	9826804	9832837	ShowFixation	ANTI	84	4	False	red	180	[1035 1515  405  675]	[405 885 405 675]
599.649	0.2	9832837	9833076	BlankScreen	ANTI	84	4	False	red	180	[1035 1515  405  675]	[405 885 405 675]
599.888	1.0	9833076	9834076	ELCue	ANTI	84	4	False	red	180	[1035 1515  405  675]	[405 885 405 675]
601.295	6.0	9834483	9840511	ShowFixation	ANTI	85	4	False	red	600	[ 90 570 405 675]	[1350 1830  405  675]
607.323	0.2	9840511	9840750	BlankScreen	ANTI	85	4	False	red	600	[ 90 570 405 675]	[1350 1830  405  675]
607.562	1.0	9840750	9841750	ELCue	ANTI	85	4	False	red	600	[ 90 570 405 675]	[1350 1830  405  675]
608.964	2.0	9842152	9844185	ShowFixation	VGS	86	4	False	lime	40	[ 90 570 405 675]	[1350 1830  405  675]
610.997	0.2	9844185	9844421	BlankScreen	VGS	86	4	False	lime	40	[ 90 570 405 675]	[1350 1830  405  675]
611.233	1.0	9844421	9845421	ELCue	VGS	86	4	False	lime	40	[ 90 570 405 675]	[1350 1830  405  675]
612.642	2.0	9845830	9847856	ShowFixation	ANTI	87	4	False	red	40	[1350 1830  405  675]	[ 90 570 405 675]
614.668	0.2	9847856	9848091	BlankScreen	ANTI	87	4	False	red	40	[1350 1830  405  675]	[ 90 570 405 675]
614.903	1.0	9848091	9849091	ELCue	ANTI	87	4	False	red	40	[1350 1830  405  675]	[ 90 570 405 675]
616.311	2.0	9849499	9851526	ShowFixation	VGS	88	4	False	lime	600	[1350 1830  405  675]	[ 90 570 405 675]
618.338	0.2	9851526	9851761	BlankScreen	VGS	88	4	False	lime	600	[1350 1830  405  675]	[ 90 570 405 675]
618.573	1.0	9851761	9852761	ELCue	VGS	88	4	False	lime	600	[1350 1830  405  675]	[ 90 570 405 675]
619.98	6.0	9853168	9859196	ShowFixation	VGS	89	4	False	lime	40	[ 90 570 405 675]	[1350 1830  405  675]
626.008	0.2	9859196	9859435	BlankScreen	VGS	89	4	False	lime	40	[ 90 570 405 675]	[1350 1830  405  675]
626.247	1.0	9859435	9860435	ELCue	VGS	89	4	False	lime	40	[ 90 570 405 675]	[1350 1830  405  675]
627.659	2.0	9860847	9862887	ShowFixation	VGS	90	4	False	lime	180	[405 885 405 675]	[1035 1515  405  675]
629.699	0.2	9862887	9863122	BlankScreen	VGS	90	4	False	lime	180	[405 885 405 675]	[1035 1515  405  675]
629.934	1.0	9863122	9864122	ELCue	VGS	90	4	False	lime	180	[405 885 405 675]	[1035 1515  405  675]
631.327	6.0	9864515	9870541	ShowFixation	VGS	91	4	False	lime	40	[ 90 570 405 675]	[1350 1830  405  675]
637.353	0.2	9870541	9870780	BlankScreen	VGS	91	4	False	lime	40	[ 90 570 405 675]	[1350 1830  405  675]
637.592	1.0	9870780	9871780	ELCue	VGS	91	4	False	lime	40	[ 90 570 405 675]	[1350 1830  405  675]
639.007	6.0	9872195	9878232	ShowFixation	VGS	92	4	False	lime	180	[405 885 405 675]	[1035 1515  405  675]
645.044	0.2	9878232	9878471	BlankScreen	VGS	92	4	False	lime	180	[405 885 405 675]	[1035 1515  405  675]
645.283	1.0	9878471	9879471	ELCue	VGS	92	4	False	lime	180	[405 885 405 675]	[1035 1515  405  675]
646.695	2.0	9879883	9881923	ShowFixation	ANTI	93	4	False	red	600	[ 90 570 405 675]	[1350 1830  405  675]
648.735	0.2	9881923	9882158	BlankScreen	ANTI	93	4	False	red	600	[ 90 570 405 675]	[1350 1830  405  675]
648.97	1.0	9882158	9883158	ELCue	ANTI	93	4	False	red	600	[ 90 570 405 675]	[1350 1830  405  675]
650.375	2.0	9883563	9885593	ShowFixation	ANTI	94	4	False	red	600	[ 90 570 405 675]	[1350 1830  405  675]
652.405	0.2	9885593	9885828	BlankScreen	ANTI	94	4	False	red	600	[ 90 570 405 675]	[1350 1830  405  675]
652.64	1.0	9885828	9886828	ELCue	ANTI	94	4	False	red	600	[ 90 570 405 675]	[1350 1830  405  675]
654.049	6.0	9887237	9893263	ShowFixation	VGS	95	4	False	lime	180	[405 885 405 675]	[1035 1515  405  675]
660.076	0.2	9893264	9893502	BlankScreen	VGS	95	4	False	lime	180	[405 885 405 675]	[1035 1515  405  675]
660.314	1.0	9893502	9894502	ELCue	VGS	95	4	False	lime	180	[405 885 405 675]	[1035 1515  405  675]
661.722	6.0	9894910	9900938	ShowFixation	ANTI	96	4	False	red	40	[1350 1830  405  675]	[ 90 570 405 675]
667.75	0.2	9900938	9901178	BlankScreen	ANTI	96	4	False	red	40	[1350 1830  405  675]	[ 90 570 405 675]
667.99	1.0	9901178	9902178	ELCue	ANTI	96	4	False	red	40	[1350 1830  405  675]	[ 90 570 405 675]
669.396	2.0	9902584	9904613	ShowFixation	ANTI	97	4	False	red	460	[405 885 405 675]	[1035 1515  405  675]
671.425	0.2	9904613	9904848	BlankScreen	ANTI	97	4	False	red	460	[405 885 405 675]	[1035 1515  405  675]
671.66	1.0	9904848	9905848	ELCue	ANTI	97	4	False	red	460	[405 885 405 675]	[1035 1515  405  675]
673.07	2.0	9906258	9908283	ShowFixation	VGS	98	4	False	lime	40	[ 90 570 405 675]	[1350 1830  405  675]
675.095	0.2	9908283	9908518	BlankScreen	VGS	98	4	False	lime	40	[ 90 570 405 675]	[1350 1830  405  675]
675.33	1.0	9908518	9909518	ELCue	VGS	98	4	False	lime	40	[ 90 570 405 675]	[1350 1830  405  675]
676.721	6.0	9909909	9915937	ShowFixation	ANTI	99	4	False	red	40	[1350 1830  405  675]	[ 90 570 405 675]
682.749	0.2	9915937	9916176	BlankScreen	ANTI	99	4	False	red	40	[1350 1830  405  675]	[ 90 570 405 675]
682.988	1.0	9916176	9917176	ELCue	ANTI	99	4	False	red	40	[1350 1830  405  675]	[ 90 570 405 675]
684.396	6.0	9917584	9923611	ShowFixation	ANTI	100	4	False	red	460	[405 885 405 675]	[1035 1515  405  675]
690.423	0.2	9923611	9923850	BlankScreen	ANTI	100	4	False	red	460	[405 885 405 675]	[1035 1515  405  675]
690.662	1.0	9923850	9924850	ELCue	ANTI	100	4	False	red	460	[405 885 405 675]	[1035 1515  405  675]
692.072	2.0	9925260	9927285	ShowFixation	ANTI	101	4	False	red	180	[1035 1515  405  675]	[405 885 405 675]
694.097	0.2	9927285	9927520	BlankScreen	ANTI	101	4	False	red	180	[1035 1515  405  675]	[405 885 405 675]
694.332	1.0	9927520	9928520	ELCue	ANTI	101	4	False	red	180	[1035 1515  405  675]	[405 885 405 675]
695.718	2.0	9928906	9930939	ShowFixation	ANTI	102	4	False	red	40	[1350 1830  405  675]	[ 90 570 405 675]
697.751	0.2	9930939	9931174	BlankScreen	ANTI	102	4	False	red	40	[1350 1830  405  675]	[ 90 570 405 675]
697.986	1.0	9931174	9932174	ELCue	ANTI	102	4	False	red	40	[1350 1830  405  675]	[ 90 570 405 675]
699.395	2.0	9932583	9934609	ShowFixation	VGS	103	4	False	lime	460	[1035 1515  405  675]	[405 885 405 675]
701.421	0.2	9934609	9934844	BlankScreen	VGS	103	4	False	lime	460	[1035 1515  405  675]	[405 885 405 675]
701.656	1.0	9934844	9935844	ELCue	VGS	103	4	False	lime	460	[1035 1515  405  675]	[405 885 405 675]
703.065	2.0	9936253	9938279	ShowFixation	ANTI	104	4	False	red	180	[1035 1515  405  675]	[405 885 405 675]
705.091	0.2	9938279	9938515	BlankScreen	ANTI	104	4	False	red	180	[1035 1515  405  675]	[405 885 405 675]
705.327	1.0	9938515	9939515	ELCue	ANTI	104	4	False	red	180	[1035 1515  405  675]	[405 885 405 675]
706.729	6.0	9939917	9945950	ShowFixation	VGS	105	4	False	lime	460	[1035 1515  405  675]	[405 885 405 675]
712.762	0.2	9945950	9946189	BlankScreen	VGS	105	4	False	lime	460	[1035 1515  405  675]	[405 885 405 675]
713.001	1.0	9946189	9947189	ELCue	VGS	105	4	False	lime	460	[1035 1515  405  675]	[405 885 405 675]
714.41	6.0	9947598	9953624	ShowFixation	VGS	106	4	False	lime	600	[1350 1830  405  675]	[ 90 570 405 675]
720.436	0.2	9953624	9953863	BlankScreen	VGS	106	4	False	lime	600	[1350 1830  405  675]	[ 90 570 405 675]
720.675	1.0	9953863	9954863	ELCue	VGS	106	4	False	lime	600	[1350 1830  405  675]	[ 90 570 405 675]
722.084	2.0	9955272	9957298	ShowFixation	VGS	107	4	False	lime	460	[1035 1515  405  675]	[405 885 405 675]
724.11	0.2	9957298	9957533	BlankScreen	VGS	107	4	False	lime	460	[1035 1515  405  675]	[405 885 405 675]
724.345	1.0	9957533	9958533	ELCue	VGS	107	4	False	lime	460	[1035 1515  405  675]	[405 885 405 675]
725.734	6.0	9958922	9964952	ShowFixation	ANTI	108	4	False	red	180	[1035 1515  405  675]	[405 885 405 675]
731.764	0.2	9964952	9965191	BlankScreen	ANTI	108	4	False	red	180	[1035 1515  405  675]	[405 885 405 675]
732.003	1.0	9965191	9966191	ELCue	ANTI	108	4	False	red	180	[1035 1515  405  675]	[405 885 405 675]
733.395	6.0	9966583	9972609	ShowFixation	ANTI	109	4	False	red	600	[ 90 570 405 675]	[1350 1830  405  675]
739.421	0.2	9972609	9972848	BlankScreen	ANTI	109	4	False	red	600	[ 90 570 405 675]	[1350 1830  405  675]
739.66	1.0	9972848	9973848	ELCue	ANTI	109	4	False	red	600	[ 90 570 405 675]	[1350 1830  405  675]
741.067	6.0	9974255	9980283	ShowFixation	ANTI	110	4	False	red	460	[405 885 405 675]	[1035 1515  405  675]
747.095	0.2	9980283	9980523	BlankScreen	ANTI	110	4	False	red	460	[405 885 405 675]	[1035 1515  405  675]
747.335	1.0	9980523	9981523	ELCue	ANTI	110	4	False	red	460	[405 885 405 675]	[1035 1515  405  675]
748.742	2.0	9981930	9983958	ShowFixation	ANTI	111	4	False	red	460	[405 885 405 675]	[1035 1515  405  675]
750.77	0.2	9983958	9984193	BlankScreen	ANTI	111	4	False	red	460	[405 885 405 675]	[1035 1515  405  675]
751.005	1.0	9984193	9985193	ELCue	ANTI	111	4	False	red	460	[405 885 405 675]	[1035 1515  405  675]
752.414	2.0	9985602	9987628	ShowFixation	VGS	112	4	False	lime	600	[1350 1830  405  675]	[ 90 570 405 675]
754.44	0.2	9987628	9987863	BlankScreen	VGS	112	4	False	lime	600	[1350 1830  405  675]	[ 90 570 405 675]
754.675	1.0	9987863	9988863	ELCue	VGS	112	4	False	lime	600	[1350 1830  405  675]	[ 90 570 405 675]
