onset	duration	startTime	stopTime	eventIdentifier	trial_type	trial_number	block_number	is_practice	fixation_color	cue_side	aoi_correct	aoi_incorrect
0.152	2.0	2821126	2823159	ShowFixation	VGS	1	1	True	lime	180	[405 885 405 675]	[1035 1515  405  675]
2.185	0.2	2823159	2823394	BlankScreen	VGS	1	1	True	lime	180	[405 885 405 675]	[1035 1515  405  675]
2.42	1.0	2823394	2824435	ELCue	VGS	1	1	True	lime	180	[405 885 405 675]	[1035 1515  405  675]
3.88	2.0	2824854	2827480	ShowFixation	VGS	2	1	True	lime	40	[ 90 570 405 675]	[1350 1830  405  675]
6.506	0.2	2827480	2827715	BlankScreen	VGS	2	1	True	lime	40	[ 90 570 405 675]	[1350 1830  405  675]
6.741	1.0	2827715	2828756	ELCue	VGS	2	1	True	lime	40	[ 90 570 405 675]	[1350 1830  405  675]
8.199	6.0	2829173	2835801	ShowFixation	ANTI	3	1	True	red	600	[ 90 570 405 675]	[1350 1830  405  675]
14.827	0.2	2835801	2836040	BlankScreen	ANTI	3	1	True	red	600	[ 90 570 405 675]	[1350 1830  405  675]
15.067	1.0	2836041	2837081	ELCue	ANTI	3	1	True	red	600	[ 90 570 405 675]	[1350 1830  405  675]
16.527	6.0	2837501	2844125	ShowFixation	VGS	4	1	True	lime	180	[405 885 405 675]	[1035 1515  405  675]
23.152	0.2	2844126	2844366	BlankScreen	VGS	4	1	True	lime	180	[405 885 405 675]	[1035 1515  405  675]
23.392	1.0	2844366	2845406	ELCue	VGS	4	1	True	lime	180	[405 885 405 675]	[1035 1515  405  675]
24.852	2.0	2845826	2848451	ShowFixation	ANTI	5	1	True	red	460	[405 885 405 675]	[1035 1515  405  675]
27.477	0.2	2848451	2848687	BlankScreen	ANTI	5	1	True	red	460	[405 885 405 675]	[1035 1515  405  675]
27.713	1.0	2848687	2849724	ELCue	ANTI	5	1	True	red	460	[405 885 405 675]	[1035 1515  405  675]
29.17	6.0	2850144	2856772	ShowFixation	VGS	6	1	True	lime	40	[ 90 570 405 675]	[1350 1830  405  675]
35.798	0.2	2856772	2857012	BlankScreen	VGS	6	1	True	lime	40	[ 90 570 405 675]	[1350 1830  405  675]
36.038	1.0	2857012	2858052	ELCue	VGS	6	1	True	lime	40	[ 90 570 405 675]	[1350 1830  405  675]
37.494	6.0	2858468	2865097	ShowFixation	VGS	7	1	True	lime	600	[1350 1830  405  675]	[ 90 570 405 675]
44.123	0.2	2865097	2865336	BlankScreen	VGS	7	1	True	lime	600	[1350 1830  405  675]	[ 90 570 405 675]
44.362	1.0	2865336	2866377	ELCue	VGS	7	1	True	lime	600	[1350 1830  405  675]	[ 90 570 405 675]
45.82	6.0	2866794	2873422	ShowFixation	ANTI	8	1	True	red	180	[1035 1515  405  675]	[405 885 405 675]
52.448	0.2	2873422	2873661	BlankScreen	ANTI	8	1	True	red	180	[1035 1515  405  675]	[405 885 405 675]
52.687	1.0	2873661	2874701	ELCue	ANTI	8	1	True	red	180	[1035 1515  405  675]	[405 885 405 675]
54.143	2.0	2875117	2877730	ShowFixation	ANTI	9	1	True	red	600	[ 90 570 405 675]	[1350 1830  405  675]
56.756	0.2	2877730	2877949	BlankScreen	ANTI	9	1	True	red	600	[ 90 570 405 675]	[1350 1830  405  675]
56.975	1.0	2877949	2878972	ELCue	ANTI	9	1	True	red	600	[ 90 570 405 675]	[1350 1830  405  675]
58.41	6.0	2879384	2886018	ShowFixation	VGS	10	1	True	lime	460	[1035 1515  405  675]	[405 885 405 675]
65.044	0.2	2886018	2886257	BlankScreen	VGS	10	1	True	lime	460	[1035 1515  405  675]	[405 885 405 675]
65.283	1.0	2886257	2887297	ELCue	VGS	10	1	True	lime	460	[1035 1515  405  675]	[405 885 405 675]
66.737	6.0	2887711	2894326	ShowFixation	ANTI	11	1	True	red	40	[1350 1830  405  675]	[ 90 570 405 675]
73.352	0.2	2894326	2894565	BlankScreen	ANTI	11	1	True	red	40	[1350 1830  405  675]	[ 90 570 405 675]
73.591	1.0	2894565	2895606	ELCue	ANTI	11	1	True	red	40	[1350 1830  405  675]	[ 90 570 405 675]
75.049	2.0	2896023	2898651	ShowFixation	VGS	12	1	True	lime	600	[1350 1830  405  675]	[ 90 570 405 675]
77.677	0.2	2898651	2898886	BlankScreen	VGS	12	1	True	lime	600	[1350 1830  405  675]	[ 90 570 405 675]
77.912	1.0	2898886	2899927	ELCue	VGS	12	1	True	lime	600	[1350 1830  405  675]	[ 90 570 405 675]
79.369	2.0	2900343	2902972	ShowFixation	VGS	13	1	True	lime	460	[1035 1515  405  675]	[405 885 405 675]
81.998	0.2	2902972	2903207	BlankScreen	VGS	13	1	True	lime	460	[1035 1515  405  675]	[405 885 405 675]
82.233	1.0	2903207	2904248	ELCue	VGS	13	1	True	lime	460	[1035 1515  405  675]	[405 885 405 675]
83.692	2.0	2904666	2907293	ShowFixation	ANTI	14	1	True	red	40	[1350 1830  405  675]	[ 90 570 405 675]
86.319	0.2	2907293	2907528	BlankScreen	ANTI	14	1	True	red	40	[1350 1830  405  675]	[ 90 570 405 675]
86.554	1.0	2907528	2908569	ELCue	ANTI	14	1	True	red	40	[1350 1830  405  675]	[ 90 570 405 675]
88.041	2.0	2909015	2911614	ShowFixation	ANTI	15	1	True	red	180	[1035 1515  405  675]	[405 885 405 675]
90.64	0.2	2911614	2911849	BlankScreen	ANTI	15	1	True	red	180	[1035 1515  405  675]	[405 885 405 675]
90.875	1.0	2911849	2912890	ELCue	ANTI	15	1	True	red	180	[1035 1515  405  675]	[405 885 405 675]
92.334	6.0	2913308	2919935	ShowFixation	ANTI	16	1	True	red	460	[405 885 405 675]	[1035 1515  405  675]
98.961	0.2	2919935	2920174	BlankScreen	ANTI	16	1	True	red	460	[405 885 405 675]	[1035 1515  405  675]
99.2	1.0	2920174	2921214	ELCue	ANTI	16	1	True	red	460	[405 885 405 675]	[1035 1515  405  675]
112.709	6.0	2933683	2939721	ShowFixation	VGS	17	2	False	lime	600	[1350 1830  405  675]	[ 90 570 405 675]
118.747	0.2	2939721	2939960	BlankScreen	VGS	17	2	False	lime	600	[1350 1830  405  675]	[ 90 570 405 675]
118.986	1.0	2939960	2940960	ELCue	VGS	17	2	False	lime	600	[1350 1830  405  675]	[ 90 570 405 675]
120.404	2.0	2941378	2943412	ShowFixation	VGS	18	2	False	lime	40	[ 90 570 405 675]	[1350 1830  405  675]
122.438	0.2	2943412	2943647	BlankScreen	VGS	18	2	False	lime	40	[ 90 570 405 675]	[1350 1830  405  675]
122.674	1.0	2943648	2944648	ELCue	VGS	18	2	False	lime	40	[ 90 570 405 675]	[1350 1830  405  675]
124.093	2.0	2945067	2947101	ShowFixation	ANTI	19	2	False	red	180	[1035 1515  405  675]	[405 885 405 675]
126.127	0.2	2947101	2947334	BlankScreen	ANTI	19	2	False	red	180	[1035 1515  405  675]	[405 885 405 675]
126.361	1.0	2947335	2948335	ELCue	ANTI	19	2	False	red	180	[1035 1515  405  675]	[405 885 405 675]
127.783	6.0	2948757	2954786	ShowFixation	ANTI	20	2	False	red	460	[405 885 405 675]	[1035 1515  405  675]
133.812	0.2	2954786	2955025	BlankScreen	ANTI	20	2	False	red	460	[405 885 405 675]	[1035 1515  405  675]
134.051	1.0	2955025	2956025	ELCue	ANTI	20	2	False	red	460	[405 885 405 675]	[1035 1515  405  675]
135.472	2.0	2956446	2958477	ShowFixation	ANTI	21	2	False	red	600	[ 90 570 405 675]	[1350 1830  405  675]
137.503	0.2	2958477	2958712	BlankScreen	ANTI	21	2	False	red	600	[ 90 570 405 675]	[1350 1830  405  675]
137.738	1.0	2958712	2959712	ELCue	ANTI	21	2	False	red	600	[ 90 570 405 675]	[1350 1830  405  675]
139.161	6.0	2960135	2966163	ShowFixation	ANTI	22	2	False	red	600	[ 90 570 405 675]	[1350 1830  405  675]
145.19	0.2	2966164	2966403	BlankScreen	ANTI	22	2	False	red	600	[ 90 570 405 675]	[1350 1830  405  675]
145.429	1.0	2966403	2967403	ELCue	ANTI	22	2	False	red	600	[ 90 570 405 675]	[1350 1830  405  675]
146.852	6.0	2967826	2973854	ShowFixation	ANTI	23	2	False	red	460	[405 885 405 675]	[1035 1515  405  675]
152.88	0.2	2973854	2974094	BlankScreen	ANTI	23	2	False	red	460	[405 885 405 675]	[1035 1515  405  675]
153.121	1.0	2974095	2975095	ELCue	ANTI	23	2	False	red	460	[405 885 405 675]	[1035 1515  405  675]
154.54	6.0	2975514	2981545	ShowFixation	VGS	24	2	False	lime	40	[ 90 570 405 675]	[1350 1830  405  675]
160.572	0.2	2981546	2981785	BlankScreen	VGS	24	2	False	lime	40	[ 90 570 405 675]	[1350 1830  405  675]
160.812	1.0	2981786	2982786	ELCue	VGS	24	2	False	lime	40	[ 90 570 405 675]	[1350 1830  405  675]
162.231	2.0	2983205	2985237	ShowFixation	ANTI	25	2	False	red	40	[1350 1830  405  675]	[ 90 570 405 675]
164.263	0.2	2985237	2985473	BlankScreen	ANTI	25	2	False	red	40	[1350 1830  405  675]	[ 90 570 405 675]
164.499	1.0	2985473	2986473	ELCue	ANTI	25	2	False	red	40	[1350 1830  405  675]	[ 90 570 405 675]
165.904	2.0	2986878	2988908	ShowFixation	ANTI	26	2	False	red	460	[405 885 405 675]	[1035 1515  405  675]
167.934	0.2	2988908	2989143	BlankScreen	ANTI	26	2	False	red	460	[405 885 405 675]	[1035 1515  405  675]
168.169	1.0	2989143	2990143	ELCue	ANTI	26	2	False	red	460	[405 885 405 675]	[1035 1515  405  675]
169.586	6.0	2990560	2996594	ShowFixation	ANTI	27	2	False	red	40	[1350 1830  405  675]	[ 90 570 405 675]
175.62	0.2	2996594	2996834	BlankScreen	ANTI	27	2	False	red	40	[1350 1830  405  675]	[ 90 570 405 675]
175.86	1.0	2996834	2997834	ELCue	ANTI	27	2	False	red	40	[1350 1830  405  675]	[ 90 570 405 675]
177.283	2.0	2998257	3000285	ShowFixation	ANTI	28	2	False	red	600	[ 90 570 405 675]	[1350 1830  405  675]
179.311	0.2	3000285	3000521	BlankScreen	ANTI	28	2	False	red	600	[ 90 570 405 675]	[1350 1830  405  675]
179.547	1.0	3000521	3001521	ELCue	ANTI	28	2	False	red	600	[ 90 570 405 675]	[1350 1830  405  675]
180.967	2.0	3001941	3003972	ShowFixation	VGS	29	2	False	lime	40	[ 90 570 405 675]	[1350 1830  405  675]
182.998	0.2	3003972	3004208	BlankScreen	VGS	29	2	False	lime	40	[ 90 570 405 675]	[1350 1830  405  675]
183.234	1.0	3004208	3005208	ELCue	VGS	29	2	False	lime	40	[ 90 570 405 675]	[1350 1830  405  675]
184.654	2.0	3005628	3007659	ShowFixation	VGS	30	2	False	lime	600	[1350 1830  405  675]	[ 90 570 405 675]
186.685	0.2	3007659	3007895	BlankScreen	VGS	30	2	False	lime	600	[1350 1830  405  675]	[ 90 570 405 675]
186.921	1.0	3007895	3008895	ELCue	VGS	30	2	False	lime	600	[1350 1830  405  675]	[ 90 570 405 675]
188.337	2.0	3009311	3011346	ShowFixation	ANTI	31	2	False	red	460	[405 885 405 675]	[1035 1515  405  675]
190.372	0.2	3011346	3011582	BlankScreen	ANTI	31	2	False	red	460	[405 885 405 675]	[1035 1515  405  675]
190.608	1.0	3011582	3012582	ELCue	ANTI	31	2	False	red	460	[405 885 405 675]	[1035 1515  405  675]
192.029	6.0	3013003	3019033	ShowFixation	ANTI	32	2	False	red	180	[1035 1515  405  675]	[405 885 405 675]
198.059	0.2	3019033	3019273	BlankScreen	ANTI	32	2	False	red	180	[1035 1515  405  675]	[405 885 405 675]
198.299	1.0	3019273	3020273	ELCue	ANTI	32	2	False	red	180	[1035 1515  405  675]	[405 885 405 675]
199.718	2.0	3020692	3022724	ShowFixation	VGS	33	2	False	lime	600	[1350 1830  405  675]	[ 90 570 405 675]
201.75	0.2	3022724	3022960	BlankScreen	VGS	33	2	False	lime	600	[1350 1830  405  675]	[ 90 570 405 675]
201.986	1.0	3022960	3023960	ELCue	VGS	33	2	False	lime	600	[1350 1830  405  675]	[ 90 570 405 675]
203.405	2.0	3024379	3026411	ShowFixation	VGS	34	2	False	lime	460	[1035 1515  405  675]	[405 885 405 675]
205.437	0.2	3026411	3026647	BlankScreen	VGS	34	2	False	lime	460	[1035 1515  405  675]	[405 885 405 675]
205.673	1.0	3026647	3027647	ELCue	VGS	34	2	False	lime	460	[1035 1515  405  675]	[405 885 405 675]
207.093	6.0	3028067	3034098	ShowFixation	VGS	35	2	False	lime	180	[405 885 405 675]	[1035 1515  405  675]
213.124	0.2	3034098	3034337	BlankScreen	VGS	35	2	False	lime	180	[405 885 405 675]	[1035 1515  405  675]
213.363	1.0	3034337	3035337	ELCue	VGS	35	2	False	lime	180	[405 885 405 675]	[1035 1515  405  675]
214.783	6.0	3035757	3041789	ShowFixation	VGS	36	2	False	lime	180	[405 885 405 675]	[1035 1515  405  675]
220.815	0.2	3041789	3042028	BlankScreen	VGS	36	2	False	lime	180	[405 885 405 675]	[1035 1515  405  675]
221.054	1.0	3042028	3043028	ELCue	VGS	36	2	False	lime	180	[405 885 405 675]	[1035 1515  405  675]
222.478	2.0	3043452	3045480	ShowFixation	ANTI	37	2	False	red	40	[1350 1830  405  675]	[ 90 570 405 675]
224.506	0.2	3045480	3045715	BlankScreen	ANTI	37	2	False	red	40	[1350 1830  405  675]	[ 90 570 405 675]
224.741	1.0	3045715	3046715	ELCue	ANTI	37	2	False	red	40	[1350 1830  405  675]	[ 90 570 405 675]
226.162	6.0	3047136	3053167	ShowFixation	ANTI	38	2	False	red	180	[1035 1515  405  675]	[405 885 405 675]
232.193	0.2	3053167	3053406	BlankScreen	ANTI	38	2	False	red	180	[1035 1515  405  675]	[405 885 405 675]
232.432	1.0	3053406	3054406	ELCue	ANTI	38	2	False	red	180	[1035 1515  405  675]	[405 885 405 675]
233.852	2.0	3054826	3056858	ShowFixation	VGS	39	2	False	lime	460	[1035 1515  405  675]	[405 885 405 675]
235.884	0.2	3056858	3057093	BlankScreen	VGS	39	2	False	lime	460	[1035 1515  405  675]	[405 885 405 675]
236.119	1.0	3057093	3058093	ELCue	VGS	39	2	False	lime	460	[1035 1515  405  675]	[405 885 405 675]
237.54	2.0	3058514	3060545	ShowFixation	VGS	40	2	False	lime	180	[405 885 405 675]	[1035 1515  405  675]
239.571	0.2	3060545	3060780	BlankScreen	VGS	40	2	False	lime	180	[405 885 405 675]	[1035 1515  405  675]
239.806	1.0	3060780	3061780	ELCue	VGS	40	2	False	lime	180	[405 885 405 675]	[1035 1515  405  675]
241.228	6.0	3062202	3068232	ShowFixation	ANTI	41	2	False	red	40	[1350 1830  405  675]	[ 90 570 405 675]
247.258	0.2	3068232	3068471	BlankScreen	ANTI	41	2	False	red	40	[1350 1830  405  675]	[ 90 570 405 675]
247.497	1.0	3068471	3069471	ELCue	ANTI	41	2	False	red	40	[1350 1830  405  675]	[ 90 570 405 675]
248.921	2.0	3069895	3071923	ShowFixation	ANTI	42	2	False	red	180	[1035 1515  405  675]	[405 885 405 675]
250.949	0.2	3071923	3072158	BlankScreen	ANTI	42	2	False	red	180	[1035 1515  405  675]	[405 885 405 675]
251.184	1.0	3072158	3073158	ELCue	ANTI	42	2	False	red	180	[1035 1515  405  675]	[405 885 405 675]
252.607	6.0	3073581	3079610	ShowFixation	VGS	43	2	False	lime	460	[1035 1515  405  675]	[405 885 405 675]
258.636	0.2	3079610	3079849	BlankScreen	VGS	43	2	False	lime	460	[1035 1515  405  675]	[405 885 405 675]
258.875	1.0	3079849	3080849	ELCue	VGS	43	2	False	lime	460	[1035 1515  405  675]	[405 885 405 675]
260.3	2.0	3081274	3083301	ShowFixation	VGS	44	2	False	lime	180	[405 885 405 675]	[1035 1515  405  675]
262.327	0.2	3083301	3083536	BlankScreen	VGS	44	2	False	lime	180	[405 885 405 675]	[1035 1515  405  675]
262.562	1.0	3083536	3084536	ELCue	VGS	44	2	False	lime	180	[405 885 405 675]	[1035 1515  405  675]
263.962	6.0	3084936	3090971	ShowFixation	VGS	45	2	False	lime	600	[1350 1830  405  675]	[ 90 570 405 675]
269.997	0.2	3090971	3091210	BlankScreen	VGS	45	2	False	lime	600	[1350 1830  405  675]	[ 90 570 405 675]
270.236	1.0	3091210	3092210	ELCue	VGS	45	2	False	lime	600	[1350 1830  405  675]	[ 90 570 405 675]
271.66	6.0	3092634	3098662	ShowFixation	VGS	46	2	False	lime	460	[1035 1515  405  675]	[405 885 405 675]
277.688	0.2	3098662	3098901	BlankScreen	VGS	46	2	False	lime	460	[1035 1515  405  675]	[405 885 405 675]
277.927	1.0	3098901	3099901	ELCue	VGS	46	2	False	lime	460	[1035 1515  405  675]	[405 885 405 675]
279.353	6.0	3100327	3106353	ShowFixation	VGS	47	2	False	lime	40	[ 90 570 405 675]	[1350 1830  405  675]
285.38	0.2	3106354	3106593	BlankScreen	VGS	47	2	False	lime	40	[ 90 570 405 675]	[1350 1830  405  675]
285.619	1.0	3106593	3107593	ELCue	VGS	47	2	False	lime	40	[ 90 570 405 675]	[1350 1830  405  675]
287.038	6.0	3108012	3114045	ShowFixation	ANTI	48	2	False	red	600	[ 90 570 405 675]	[1350 1830  405  675]
293.071	0.2	3114045	3114284	BlankScreen	ANTI	48	2	False	red	600	[ 90 570 405 675]	[1350 1830  405  675]
293.31	1.0	3114284	3115284	ELCue	ANTI	48	2	False	red	600	[ 90 570 405 675]	[1350 1830  405  675]
325.263	2.0	3146237	3148266	ShowFixation	VGS	49	3	False	lime	460	[1035 1515  405  675]	[405 885 405 675]
327.292	0.2	3148266	3148501	BlankScreen	VGS	49	3	False	lime	460	[1035 1515  405  675]	[405 885 405 675]
327.527	1.0	3148501	3149501	ELCue	VGS	49	3	False	lime	460	[1035 1515  405  675]	[405 885 405 675]
328.947	2.0	3149921	3151953	ShowFixation	ANTI	50	3	False	red	40	[1350 1830  405  675]	[ 90 570 405 675]
330.979	0.2	3151953	3152188	BlankScreen	ANTI	50	3	False	red	40	[1350 1830  405  675]	[ 90 570 405 675]
331.214	1.0	3152188	3153188	ELCue	ANTI	50	3	False	red	40	[1350 1830  405  675]	[ 90 570 405 675]
332.634	6.0	3153608	3159640	ShowFixation	ANTI	51	3	False	red	460	[405 885 405 675]	[1035 1515  405  675]
338.666	0.2	3159640	3159879	BlankScreen	ANTI	51	3	False	red	460	[405 885 405 675]	[1035 1515  405  675]
338.905	1.0	3159879	3160879	ELCue	ANTI	51	3	False	red	460	[405 885 405 675]	[1035 1515  405  675]
340.327	6.0	3161301	3167331	ShowFixation	VGS	52	3	False	lime	600	[1350 1830  405  675]	[ 90 570 405 675]
346.357	0.2	3167331	3167570	BlankScreen	VGS	52	3	False	lime	600	[1350 1830  405  675]	[ 90 570 405 675]
346.596	1.0	3167570	3168570	ELCue	VGS	52	3	False	lime	600	[1350 1830  405  675]	[ 90 570 405 675]
348.02	2.0	3168994	3171021	ShowFixation	ANTI	53	3	False	red	600	[ 90 570 405 675]	[1350 1830  405  675]
350.047	0.2	3171021	3171257	BlankScreen	ANTI	53	3	False	red	600	[ 90 570 405 675]	[1350 1830  405  675]
350.283	1.0	3171257	3172257	ELCue	ANTI	53	3	False	red	600	[ 90 570 405 675]	[1350 1830  405  675]
351.706	6.0	3172680	3178708	ShowFixation	VGS	54	3	False	lime	180	[405 885 405 675]	[1035 1515  405  675]
357.734	0.2	3178708	3178948	BlankScreen	VGS	54	3	False	lime	180	[405 885 405 675]	[1035 1515  405  675]
357.974	1.0	3178948	3179948	ELCue	VGS	54	3	False	lime	180	[405 885 405 675]	[1035 1515  405  675]
359.397	2.0	3180371	3182399	ShowFixation	VGS	55	3	False	lime	40	[ 90 570 405 675]	[1350 1830  405  675]
361.425	0.2	3182399	3182635	BlankScreen	VGS	55	3	False	lime	40	[ 90 570 405 675]	[1350 1830  405  675]
361.661	1.0	3182635	3183635	ELCue	VGS	55	3	False	lime	40	[ 90 570 405 675]	[1350 1830  405  675]
363.084	2.0	3184058	3186086	ShowFixation	VGS	56	3	False	lime	600	[1350 1830  405  675]	[ 90 570 405 675]
365.112	0.2	3186086	3186322	BlankScreen	VGS	56	3	False	lime	600	[1350 1830  405  675]	[ 90 570 405 675]
365.348	1.0	3186322	3187322	ELCue	VGS	56	3	False	lime	600	[1350 1830  405  675]	[ 90 570 405 675]
366.77	2.0	3187744	3189773	ShowFixation	VGS	57	3	False	lime	600	[1350 1830  405  675]	[ 90 570 405 675]
368.799	0.2	3189773	3190009	BlankScreen	VGS	57	3	False	lime	600	[1350 1830  405  675]	[ 90 570 405 675]
369.035	1.0	3190009	3191009	ELCue	VGS	57	3	False	lime	600	[1350 1830  405  675]	[ 90 570 405 675]
370.454	2.0	3191428	3193460	ShowFixation	VGS	58	3	False	lime	40	[ 90 570 405 675]	[1350 1830  405  675]
372.486	0.2	3193460	3193696	BlankScreen	VGS	58	3	False	lime	40	[ 90 570 405 675]	[1350 1830  405  675]
372.722	1.0	3193696	3194696	ELCue	VGS	58	3	False	lime	40	[ 90 570 405 675]	[1350 1830  405  675]
374.145	2.0	3195119	3197147	ShowFixation	VGS	59	3	False	lime	180	[405 885 405 675]	[1035 1515  405  675]
376.173	0.2	3197147	3197383	BlankScreen	VGS	59	3	False	lime	180	[405 885 405 675]	[1035 1515  405  675]
376.409	1.0	3197383	3198383	ELCue	VGS	59	3	False	lime	180	[405 885 405 675]	[1035 1515  405  675]
377.83	6.0	3198804	3204834	ShowFixation	VGS	60	3	False	lime	460	[1035 1515  405  675]	[405 885 405 675]
383.86	0.2	3204834	3205074	BlankScreen	VGS	60	3	False	lime	460	[1035 1515  405  675]	[405 885 405 675]
384.1	1.0	3205074	3206074	ELCue	VGS	60	3	False	lime	460	[1035 1515  405  675]	[405 885 405 675]
385.522	2.0	3206496	3208525	ShowFixation	ANTI	61	3	False	red	40	[1350 1830  405  675]	[ 90 570 405 675]
387.551	0.2	3208525	3208760	BlankScreen	ANTI	61	3	False	red	40	[1350 1830  405  675]	[ 90 570 405 675]
387.786	1.0	3208760	3209760	ELCue	ANTI	61	3	False	red	40	[1350 1830  405  675]	[ 90 570 405 675]
389.203	2.0	3210177	3212212	ShowFixation	VGS	62	3	False	lime	180	[405 885 405 675]	[1035 1515  405  675]
391.238	0.2	3212212	3212447	BlankScreen	VGS	62	3	False	lime	180	[405 885 405 675]	[1035 1515  405  675]
391.474	1.0	3212448	3213448	ELCue	VGS	62	3	False	lime	180	[405 885 405 675]	[1035 1515  405  675]
392.897	2.0	3213871	3215900	ShowFixation	ANTI	63	3	False	red	180	[1035 1515  405  675]	[405 885 405 675]
394.926	0.2	3215900	3216134	BlankScreen	ANTI	63	3	False	red	180	[1035 1515  405  675]	[405 885 405 675]
395.16	1.0	3216134	3217134	ELCue	ANTI	63	3	False	red	180	[1035 1515  405  675]	[405 885 405 675]
396.565	6.0	3217539	3223569	ShowFixation	ANTI	64	3	False	red	600	[ 90 570 405 675]	[1350 1830  405  675]
402.595	0.2	3223569	3223809	BlankScreen	ANTI	64	3	False	red	600	[ 90 570 405 675]	[1350 1830  405  675]
402.835	1.0	3223809	3224809	ELCue	ANTI	64	3	False	red	600	[ 90 570 405 675]	[1350 1830  405  675]
404.259	6.0	3225233	3231260	ShowFixation	VGS	65	3	False	lime	460	[1035 1515  405  675]	[405 885 405 675]
410.286	0.2	3231260	3231500	BlankScreen	VGS	65	3	False	lime	460	[1035 1515  405  675]	[405 885 405 675]
410.526	1.0	3231500	3232500	ELCue	VGS	65	3	False	lime	460	[1035 1515  405  675]	[405 885 405 675]
411.944	2.0	3232918	3234951	ShowFixation	ANTI	66	3	False	red	180	[1035 1515  405  675]	[405 885 405 675]
413.977	0.2	3234951	3235188	BlankScreen	ANTI	66	3	False	red	180	[1035 1515  405  675]	[405 885 405 675]
414.214	1.0	3235188	3236188	ELCue	ANTI	66	3	False	red	180	[1035 1515  405  675]	[405 885 405 675]
415.634	6.0	3236608	3242638	ShowFixation	VGS	67	3	False	lime	40	[ 90 570 405 675]	[1350 1830  405  675]
421.665	0.2	3242639	3242878	BlankScreen	VGS	67	3	False	lime	40	[ 90 570 405 675]	[1350 1830  405  675]
421.904	1.0	3242878	3243878	ELCue	VGS	67	3	False	lime	40	[ 90 570 405 675]	[1350 1830  405  675]
423.325	2.0	3244299	3246330	ShowFixation	ANTI	68	3	False	red	600	[ 90 570 405 675]	[1350 1830  405  675]
425.356	0.2	3246330	3246565	BlankScreen	ANTI	68	3	False	red	600	[ 90 570 405 675]	[1350 1830  405  675]
425.591	1.0	3246565	3247565	ELCue	ANTI	68	3	False	red	600	[ 90 570 405 675]	[1350 1830  405  675]
427.008	6.0	3247982	3254016	ShowFixation	ANTI	69	3	False	red	40	[1350 1830  405  675]	[ 90 570 405 675]
433.043	0.2	3254017	3254256	BlankScreen	ANTI	69	3	False	red	40	[1350 1830  405  675]	[ 90 570 405 675]
433.282	1.0	3254256	3255256	ELCue	ANTI	69	3	False	red	40	[1350 1830  405  675]	[ 90 570 405 675]
434.704	6.0	3255678	3261708	ShowFixation	VGS	70	3	False	lime	180	[405 885 405 675]	[1035 1515  405  675]
440.734	0.2	3261708	3261947	BlankScreen	VGS	70	3	False	lime	180	[405 885 405 675]	[1035 1515  405  675]
440.973	1.0	3261947	3262947	ELCue	VGS	70	3	False	lime	180	[405 885 405 675]	[1035 1515  405  675]
442.378	6.0	3263352	3269382	ShowFixation	ANTI	71	3	False	red	600	[ 90 570 405 675]	[1350 1830  405  675]
448.408	0.2	3269382	3269622	BlankScreen	ANTI	71	3	False	red	600	[ 90 570 405 675]	[1350 1830  405  675]
448.648	1.0	3269622	3270622	ELCue	ANTI	71	3	False	red	600	[ 90 570 405 675]	[1350 1830  405  675]
450.065	6.0	3271039	3277073	ShowFixation	ANTI	72	3	False	red	40	[1350 1830  405  675]	[ 90 570 405 675]
456.099	0.2	3277073	3277312	BlankScreen	ANTI	72	3	False	red	40	[1350 1830  405  675]	[ 90 570 405 675]
456.338	1.0	3277312	3278312	ELCue	ANTI	72	3	False	red	40	[1350 1830  405  675]	[ 90 570 405 675]
457.759	6.0	3278733	3284764	ShowFixation	ANTI	73	3	False	red	460	[405 885 405 675]	[1035 1515  405  675]
463.79	0.2	3284764	3285003	BlankScreen	ANTI	73	3	False	red	460	[405 885 405 675]	[1035 1515  405  675]
464.029	1.0	3285003	3286003	ELCue	ANTI	73	3	False	red	460	[405 885 405 675]	[1035 1515  405  675]
465.446	2.0	3286420	3288455	ShowFixation	ANTI	74	3	False	red	460	[405 885 405 675]	[1035 1515  405  675]
467.481	0.2	3288455	3288690	BlankScreen	ANTI	74	3	False	red	460	[405 885 405 675]	[1035 1515  405  675]
467.716	1.0	3288690	3289690	ELCue	ANTI	74	3	False	red	460	[405 885 405 675]	[1035 1515  405  675]
469.132	2.0	3290106	3292142	ShowFixation	VGS	75	3	False	lime	460	[1035 1515  405  675]	[405 885 405 675]
471.168	0.2	3292142	3292377	BlankScreen	VGS	75	3	False	lime	460	[1035 1515  405  675]	[405 885 405 675]
471.403	1.0	3292377	3293377	ELCue	VGS	75	3	False	lime	460	[1035 1515  405  675]	[405 885 405 675]
472.826	6.0	3293800	3299829	ShowFixation	VGS	76	3	False	lime	600	[1350 1830  405  675]	[ 90 570 405 675]
478.855	0.2	3299829	3300068	BlankScreen	VGS	76	3	False	lime	600	[1350 1830  405  675]	[ 90 570 405 675]
479.094	1.0	3300068	3301068	ELCue	VGS	76	3	False	lime	600	[1350 1830  405  675]	[ 90 570 405 675]
480.512	6.0	3301486	3307520	ShowFixation	VGS	77	3	False	lime	40	[ 90 570 405 675]	[1350 1830  405  675]
486.546	0.2	3307520	3307759	BlankScreen	VGS	77	3	False	lime	40	[ 90 570 405 675]	[1350 1830  405  675]
486.785	1.0	3307759	3308759	ELCue	VGS	77	3	False	lime	40	[ 90 570 405 675]	[1350 1830  405  675]
488.21	6.0	3309184	3315211	ShowFixation	ANTI	78	3	False	red	180	[1035 1515  405  675]	[405 885 405 675]
494.237	0.2	3315211	3315450	BlankScreen	ANTI	78	3	False	red	180	[1035 1515  405  675]	[405 885 405 675]
494.476	1.0	3315450	3316450	ELCue	ANTI	78	3	False	red	180	[1035 1515  405  675]	[405 885 405 675]
495.9	2.0	3316874	3318902	ShowFixation	ANTI	79	3	False	red	460	[405 885 405 675]	[1035 1515  405  675]
497.928	0.2	3318902	3319137	BlankScreen	ANTI	79	3	False	red	460	[405 885 405 675]	[1035 1515  405  675]
498.163	1.0	3319137	3320137	ELCue	ANTI	79	3	False	red	460	[405 885 405 675]	[1035 1515  405  675]
499.584	6.0	3320558	3326589	ShowFixation	ANTI	80	3	False	red	180	[1035 1515  405  675]	[405 885 405 675]
505.615	0.2	3326589	3326828	BlankScreen	ANTI	80	3	False	red	180	[1035 1515  405  675]	[405 885 405 675]
505.854	1.0	3326828	3327828	ELCue	ANTI	80	3	False	red	180	[1035 1515  405  675]	[405 885 405 675]
526.714	6.0	3347688	3353715	ShowFixation	VGS	81	4	False	lime	180	[405 885 405 675]	[1035 1515  405  675]
532.741	0.2	3353715	3353955	BlankScreen	VGS	81	4	False	lime	180	[405 885 405 675]	[1035 1515  405  675]
532.981	1.0	3353955	3354955	ELCue	VGS	81	4	False	lime	180	[405 885 405 675]	[1035 1515  405  675]
534.399	6.0	3355373	3361406	ShowFixation	ANTI	82	4	False	red	460	[405 885 405 675]	[1035 1515  405  675]
540.432	0.2	3361406	3361646	BlankScreen	ANTI	82	4	False	red	460	[405 885 405 675]	[1035 1515  405  675]
540.672	1.0	3361646	3362646	ELCue	ANTI	82	4	False	red	460	[405 885 405 675]	[1035 1515  405  675]
542.096	2.0	3363070	3365097	ShowFixation	ANTI	83	4	False	red	600	[ 90 570 405 675]	[1350 1830  405  675]
544.123	0.2	3365097	3365333	BlankScreen	ANTI	83	4	False	red	600	[ 90 570 405 675]	[1350 1830  405  675]
544.359	1.0	3365333	3366333	ELCue	ANTI	83	4	False	red	600	[ 90 570 405 675]	[1350 1830  405  675]
545.78	2.0	3366754	3368784	ShowFixation	VGS	84	4	False	lime	180	[405 885 405 675]	[1035 1515  405  675]
547.811	0.2	3368785	3369020	BlankScreen	VGS	84	4	False	lime	180	[405 885 405 675]	[1035 1515  405  675]
548.047	1.0	3369021	3370021	ELCue	VGS	84	4	False	lime	180	[405 885 405 675]	[1035 1515  405  675]
549.467	6.0	3370441	3376472	ShowFixation	VGS	85	4	False	lime	40	[ 90 570 405 675]	[1350 1830  405  675]
555.498	0.2	3376472	3376710	BlankScreen	VGS	85	4	False	lime	40	[ 90 570 405 675]	[1350 1830  405  675]
555.737	1.0	3376711	3377711	ELCue	VGS	85	4	False	lime	40	[ 90 570 405 675]	[1350 1830  405  675]
557.155	2.0	3378129	3380162	ShowFixation	ANTI	86	4	False	red	180	[1035 1515  405  675]	[405 885 405 675]
559.188	0.2	3380162	3380397	BlankScreen	ANTI	86	4	False	red	180	[1035 1515  405  675]	[405 885 405 675]
559.423	1.0	3380397	3381397	ELCue	ANTI	86	4	False	red	180	[1035 1515  405  675]	[405 885 405 675]
560.843	2.0	3381817	3383849	ShowFixation	VGS	87	4	False	lime	180	[405 885 405 675]	[1035 1515  405  675]
562.875	0.2	3383849	3384084	BlankScreen	VGS	87	4	False	lime	180	[405 885 405 675]	[1035 1515  405  675]
563.111	1.0	3384085	3385085	ELCue	VGS	87	4	False	lime	180	[405 885 405 675]	[1035 1515  405  675]
564.532	2.0	3385506	3387536	ShowFixation	VGS	88	4	False	lime	40	[ 90 570 405 675]	[1350 1830  405  675]
566.562	0.2	3387536	3387771	BlankScreen	VGS	88	4	False	lime	40	[ 90 570 405 675]	[1350 1830  405  675]
566.797	1.0	3387771	3388771	ELCue	VGS	88	4	False	lime	40	[ 90 570 405 675]	[1350 1830  405  675]
568.218	6.0	3389192	3395223	ShowFixation	ANTI	89	4	False	red	600	[ 90 570 405 675]	[1350 1830  405  675]
574.249	0.2	3395223	3395462	BlankScreen	ANTI	89	4	False	red	600	[ 90 570 405 675]	[1350 1830  405  675]
574.488	1.0	3395462	3396462	ELCue	ANTI	89	4	False	red	600	[ 90 570 405 675]	[1350 1830  405  675]
575.916	2.0	3396890	3398931	ShowFixation	VGS	90	4	False	lime	40	[ 90 570 405 675]	[1350 1830  405  675]
577.957	0.2	3398931	3399166	BlankScreen	VGS	90	4	False	lime	40	[ 90 570 405 675]	[1350 1830  405  675]
578.193	1.0	3399167	3400167	ELCue	VGS	90	4	False	lime	40	[ 90 570 405 675]	[1350 1830  405  675]
579.614	6.0	3400588	3406619	ShowFixation	ANTI	91	4	False	red	180	[1035 1515  405  675]	[405 885 405 675]
585.645	0.2	3406619	3406858	BlankScreen	ANTI	91	4	False	red	180	[1035 1515  405  675]	[405 885 405 675]
585.884	1.0	3406858	3407858	ELCue	ANTI	91	4	False	red	180	[1035 1515  405  675]	[405 885 405 675]
587.304	2.0	3408278	3410309	ShowFixation	VGS	92	4	False	lime	460	[1035 1515  405  675]	[405 885 405 675]
589.335	0.2	3410309	3410545	BlankScreen	VGS	92	4	False	lime	460	[1035 1515  405  675]	[405 885 405 675]
589.571	1.0	3410545	3411545	ELCue	VGS	92	4	False	lime	460	[1035 1515  405  675]	[405 885 405 675]
591.01	6.0	3411984	3418013	ShowFixation	VGS	93	4	False	lime	600	[1350 1830  405  675]	[ 90 570 405 675]
597.039	0.2	3418013	3418252	BlankScreen	VGS	93	4	False	lime	600	[1350 1830  405  675]	[ 90 570 405 675]
597.278	1.0	3418252	3419252	ELCue	VGS	93	4	False	lime	600	[1350 1830  405  675]	[ 90 570 405 675]
598.696	2.0	3419670	3421704	ShowFixation	ANTI	94	4	False	red	40	[1350 1830  405  675]	[ 90 570 405 675]
600.73	0.2	3421704	3421939	BlankScreen	ANTI	94	4	False	red	40	[1350 1830  405  675]	[ 90 570 405 675]
600.965	1.0	3421939	3422939	ELCue	ANTI	94	4	False	red	40	[1350 1830  405  675]	[ 90 570 405 675]
602.387	2.0	3423361	3425391	ShowFixation	ANTI	95	4	False	red	600	[ 90 570 405 675]	[1350 1830  405  675]
604.417	0.2	3425391	3425626	BlankScreen	ANTI	95	4	False	red	600	[ 90 570 405 675]	[1350 1830  405  675]
604.652	1.0	3425626	3426626	ELCue	ANTI	95	4	False	red	600	[ 90 570 405 675]	[1350 1830  405  675]
606.073	6.0	3427047	3433078	ShowFixation	VGS	96	4	False	lime	40	[ 90 570 405 675]	[1350 1830  405  675]
612.104	0.2	3433078	3433317	BlankScreen	VGS	96	4	False	lime	40	[ 90 570 405 675]	[1350 1830  405  675]
612.343	1.0	3433317	3434317	ELCue	VGS	96	4	False	lime	40	[ 90 570 405 675]	[1350 1830  405  675]
613.768	6.0	3434742	3440769	ShowFixation	VGS	97	4	False	lime	460	[1035 1515  405  675]	[405 885 405 675]
619.795	0.2	3440769	3441008	BlankScreen	VGS	97	4	False	lime	460	[1035 1515  405  675]	[405 885 405 675]
620.034	1.0	3441008	3442008	ELCue	VGS	97	4	False	lime	460	[1035 1515  405  675]	[405 885 405 675]
621.454	2.0	3442428	3444460	ShowFixation	VGS	98	4	False	lime	600	[1350 1830  405  675]	[ 90 570 405 675]
623.486	0.2	3444460	3444695	BlankScreen	VGS	98	4	False	lime	600	[1350 1830  405  675]	[ 90 570 405 675]
623.721	1.0	3444695	3445695	ELCue	VGS	98	4	False	lime	600	[1350 1830  405  675]	[ 90 570 405 675]
625.127	2.0	3446101	3448130	ShowFixation	ANTI	99	4	False	red	460	[405 885 405 675]	[1035 1515  405  675]
627.156	0.2	3448130	3448365	BlankScreen	ANTI	99	4	False	red	460	[405 885 405 675]	[1035 1515  405  675]
627.391	1.0	3448365	3449365	ELCue	ANTI	99	4	False	red	460	[405 885 405 675]	[1035 1515  405  675]
628.817	2.0	3449791	3451817	ShowFixation	ANTI	100	4	False	red	180	[1035 1515  405  675]	[405 885 405 675]
630.843	0.2	3451817	3452052	BlankScreen	ANTI	100	4	False	red	180	[1035 1515  405  675]	[405 885 405 675]
631.078	1.0	3452052	3453052	ELCue	ANTI	100	4	False	red	180	[1035 1515  405  675]	[405 885 405 675]
632.502	6.0	3453476	3459504	ShowFixation	ANTI	101	4	False	red	460	[405 885 405 675]	[1035 1515  405  675]
638.53	0.2	3459504	3459743	BlankScreen	ANTI	101	4	False	red	460	[405 885 405 675]	[1035 1515  405  675]
638.769	1.0	3459743	3460743	ELCue	ANTI	101	4	False	red	460	[405 885 405 675]	[1035 1515  405  675]
640.189	6.0	3461163	3467195	ShowFixation	ANTI	102	4	False	red	40	[1350 1830  405  675]	[ 90 570 405 675]
646.221	0.2	3467195	3467434	BlankScreen	ANTI	102	4	False	red	40	[1350 1830  405  675]	[ 90 570 405 675]
646.46	1.0	3467434	3468434	ELCue	ANTI	102	4	False	red	40	[1350 1830  405  675]	[ 90 570 405 675]
647.868	6.0	3468842	3474869	ShowFixation	ANTI	103	4	False	red	180	[1035 1515  405  675]	[405 885 405 675]
653.895	0.2	3474869	3475110	BlankScreen	ANTI	103	4	False	red	180	[1035 1515  405  675]	[405 885 405 675]
654.136	1.0	3475110	3476110	ELCue	ANTI	103	4	False	red	180	[1035 1515  405  675]	[405 885 405 675]
655.556	6.0	3476530	3482560	ShowFixation	VGS	104	4	False	lime	600	[1350 1830  405  675]	[ 90 570 405 675]
661.586	0.2	3482560	3482799	BlankScreen	VGS	104	4	False	lime	600	[1350 1830  405  675]	[ 90 570 405 675]
661.825	1.0	3482799	3483799	ELCue	VGS	104	4	False	lime	600	[1350 1830  405  675]	[ 90 570 405 675]
663.232	6.0	3484206	3490234	ShowFixation	VGS	105	4	False	lime	180	[405 885 405 675]	[1035 1515  405  675]
669.26	0.2	3490234	3490474	BlankScreen	VGS	105	4	False	lime	180	[405 885 405 675]	[1035 1515  405  675]
669.5	1.0	3490474	3491474	ELCue	VGS	105	4	False	lime	180	[405 885 405 675]	[1035 1515  405  675]
670.918	6.0	3491892	3497925	ShowFixation	VGS	106	4	False	lime	460	[1035 1515  405  675]	[405 885 405 675]
676.951	0.2	3497925	3498165	BlankScreen	VGS	106	4	False	lime	460	[1035 1515  405  675]	[405 885 405 675]
677.192	1.0	3498166	3499166	ELCue	VGS	106	4	False	lime	460	[1035 1515  405  675]	[405 885 405 675]
678.61	2.0	3499584	3501617	ShowFixation	VGS	107	4	False	lime	460	[1035 1515  405  675]	[405 885 405 675]
680.643	0.2	3501617	3501852	BlankScreen	VGS	107	4	False	lime	460	[1035 1515  405  675]	[405 885 405 675]
680.879	1.0	3501853	3502853	ELCue	VGS	107	4	False	lime	460	[1035 1515  405  675]	[405 885 405 675]
682.301	2.0	3503275	3505304	ShowFixation	VGS	108	4	False	lime	600	[1350 1830  405  675]	[ 90 570 405 675]
684.33	0.2	3505304	3505540	BlankScreen	VGS	108	4	False	lime	600	[1350 1830  405  675]	[ 90 570 405 675]
684.566	1.0	3505540	3506540	ELCue	VGS	108	4	False	lime	600	[1350 1830  405  675]	[ 90 570 405 675]
685.985	6.0	3506959	3512991	ShowFixation	ANTI	109	4	False	red	600	[ 90 570 405 675]	[1350 1830  405  675]
692.017	0.2	3512991	3513230	BlankScreen	ANTI	109	4	False	red	600	[ 90 570 405 675]	[1350 1830  405  675]
692.256	1.0	3513230	3514230	ELCue	ANTI	109	4	False	red	600	[ 90 570 405 675]	[1350 1830  405  675]
693.679	2.0	3514653	3516682	ShowFixation	ANTI	110	4	False	red	40	[1350 1830  405  675]	[ 90 570 405 675]
695.708	0.2	3516682	3516917	BlankScreen	ANTI	110	4	False	red	40	[1350 1830  405  675]	[ 90 570 405 675]
695.943	1.0	3516917	3517917	ELCue	ANTI	110	4	False	red	40	[1350 1830  405  675]	[ 90 570 405 675]
697.359	6.0	3518333	3524369	ShowFixation	ANTI	111	4	False	red	40	[1350 1830  405  675]	[ 90 570 405 675]
703.395	0.2	3524369	3524608	BlankScreen	ANTI	111	4	False	red	40	[1350 1830  405  675]	[ 90 570 405 675]
703.634	1.0	3524608	3525608	ELCue	ANTI	111	4	False	red	40	[1350 1830  405  675]	[ 90 570 405 675]
705.038	2.0	3526012	3528043	ShowFixation	ANTI	112	4	False	red	460	[405 885 405 675]	[1035 1515  405  675]
707.069	0.2	3528043	3528279	BlankScreen	ANTI	112	4	False	red	460	[405 885 405 675]	[1035 1515  405  675]
707.305	1.0	3528279	3529279	ELCue	ANTI	112	4	False	red	460	[405 885 405 675]	[1035 1515  405  675]
