onset	duration	startTime	stopTime	eventIdentifier	trial_type	trial_number	block_number	is_practice	fixation_color	cue_side	aoi_correct	aoi_incorrect
0.144	2.0	641401	643440	ShowFixation	VGS	1	1	True	lime	460	[1035 1515  405  675]	[405 885 405 675]
2.183	0.2	643440	643675	BlankScreen	VGS	1	1	True	lime	460	[1035 1515  405  675]	[405 885 405 675]
2.418	1.0	643675	644715	ELCue	VGS	1	1	True	lime	460	[1035 1515  405  675]	[405 885 405 675]
3.863	2.0	645120	647744	ShowFixation	VGS	2	1	True	lime	180	[405 885 405 675]	[1035 1515  405  675]
6.487	0.2	647744	647962	BlankScreen	VGS	2	1	True	lime	180	[405 885 405 675]	[1035 1515  405  675]
6.705	1.0	647962	648986	ELCue	VGS	2	1	True	lime	180	[405 885 405 675]	[1035 1515  405  675]
8.133	2.0	649390	652031	ShowFixation	ANTI	3	1	True	red	180	[1035 1515  405  675]	[405 885 405 675]
10.774	0.2	652031	652267	BlankScreen	ANTI	3	1	True	red	180	[1035 1515  405  675]	[405 885 405 675]
11.01	1.0	652267	653307	ELCue	ANTI	3	1	True	red	180	[1035 1515  405  675]	[405 885 405 675]
12.452	6.0	653709	660336	ShowFixation	ANTI	4	1	True	red	460	[405 885 405 675]	[1035 1515  405  675]
19.079	0.2	660336	660575	BlankScreen	ANTI	4	1	True	red	460	[405 885 405 675]	[1035 1515  405  675]
19.318	1.0	660575	661616	ELCue	ANTI	4	1	True	red	460	[405 885 405 675]	[1035 1515  405  675]
20.762	6.0	662019	668660	ShowFixation	VGS	5	1	True	lime	180	[405 885 405 675]	[1035 1515  405  675]
27.403	0.2	668660	668900	BlankScreen	VGS	5	1	True	lime	180	[405 885 405 675]	[1035 1515  405  675]
27.643	1.0	668900	669941	ELCue	VGS	5	1	True	lime	180	[405 885 405 675]	[1035 1515  405  675]
29.087	6.0	670344	676985	ShowFixation	ANTI	6	1	True	red	40	[1350 1830  405  675]	[ 90 570 405 675]
35.728	0.2	676985	677225	BlankScreen	ANTI	6	1	True	red	40	[1350 1830  405  675]	[ 90 570 405 675]
35.969	1.0	677226	678266	ELCue	ANTI	6	1	True	red	40	[1350 1830  405  675]	[ 90 570 405 675]
37.41	6.0	678667	685311	ShowFixation	VGS	7	1	True	lime	600	[1350 1830  405  675]	[ 90 570 405 675]
44.054	0.2	685311	685550	BlankScreen	VGS	7	1	True	lime	600	[1350 1830  405  675]	[ 90 570 405 675]
44.293	1.0	685550	686590	ELCue	VGS	7	1	True	lime	600	[1350 1830  405  675]	[ 90 570 405 675]
45.739	6.0	686996	693619	ShowFixation	VGS	8	1	True	lime	40	[ 90 570 405 675]	[1350 1830  405  675]
52.362	0.2	693619	693858	BlankScreen	VGS	8	1	True	lime	40	[ 90 570 405 675]	[1350 1830  405  675]
52.602	1.0	693859	694899	ELCue	VGS	8	1	True	lime	40	[ 90 570 405 675]	[1350 1830  405  675]
54.044	6.0	695301	701944	ShowFixation	ANTI	9	1	True	red	600	[ 90 570 405 675]	[1350 1830  405  675]
60.687	0.2	701944	702184	BlankScreen	ANTI	9	1	True	red	600	[ 90 570 405 675]	[1350 1830  405  675]
60.927	1.0	702184	703224	ELCue	ANTI	9	1	True	red	600	[ 90 570 405 675]	[1350 1830  405  675]
62.372	2.0	703629	706252	ShowFixation	VGS	10	1	True	lime	40	[ 90 570 405 675]	[1350 1830  405  675]
64.995	0.2	706252	706471	BlankScreen	VGS	10	1	True	lime	40	[ 90 570 405 675]	[1350 1830  405  675]
65.214	1.0	706471	707495	ELCue	VGS	10	1	True	lime	40	[ 90 570 405 675]	[1350 1830  405  675]
66.642	6.0	707899	714540	ShowFixation	VGS	11	1	True	lime	460	[1035 1515  405  675]	[405 885 405 675]
73.283	0.2	714540	714779	BlankScreen	VGS	11	1	True	lime	460	[1035 1515  405  675]	[405 885 405 675]
73.522	1.0	714779	715819	ELCue	VGS	11	1	True	lime	460	[1035 1515  405  675]	[405 885 405 675]
74.962	2.0	716219	718848	ShowFixation	ANTI	12	1	True	red	600	[ 90 570 405 675]	[1350 1830  405  675]
77.591	0.2	718848	719067	BlankScreen	ANTI	12	1	True	red	600	[ 90 570 405 675]	[1350 1830  405  675]
77.81	1.0	719067	720090	ELCue	ANTI	12	1	True	red	600	[ 90 570 405 675]	[1350 1830  405  675]
79.206	2.0	720463	723136	ShowFixation	ANTI	13	1	True	red	460	[405 885 405 675]	[1035 1515  405  675]
81.879	0.2	723136	723371	BlankScreen	ANTI	13	1	True	red	460	[405 885 405 675]	[1035 1515  405  675]
82.114	1.0	723371	724411	ELCue	ANTI	13	1	True	red	460	[405 885 405 675]	[1035 1515  405  675]
83.56	6.0	724817	731440	ShowFixation	ANTI	14	1	True	red	180	[1035 1515  405  675]	[405 885 405 675]
90.183	0.2	731440	731679	BlankScreen	ANTI	14	1	True	red	180	[1035 1515  405  675]	[405 885 405 675]
90.422	1.0	731679	732719	ELCue	ANTI	14	1	True	red	180	[1035 1515  405  675]	[405 885 405 675]
91.851	2.0	733108	735748	ShowFixation	VGS	15	1	True	lime	600	[1350 1830  405  675]	[ 90 570 405 675]
94.491	0.2	735748	735967	BlankScreen	VGS	15	1	True	lime	600	[1350 1830  405  675]	[ 90 570 405 675]
94.71	1.0	735967	736990	ELCue	VGS	15	1	True	lime	600	[1350 1830  405  675]	[ 90 570 405 675]
96.139	2.0	737396	740036	ShowFixation	ANTI	16	1	True	red	40	[1350 1830  405  675]	[ 90 570 405 675]
98.779	0.2	740036	740271	BlankScreen	ANTI	16	1	True	red	40	[1350 1830  405  675]	[ 90 570 405 675]
99.014	1.0	740271	741311	ELCue	ANTI	16	1	True	red	40	[1350 1830  405  675]	[ 90 570 405 675]
157.004	6.0	798261	804295	ShowFixation	ANTI	17	2	False	red	600	[ 90 570 405 675]	[1350 1830  405  675]
163.038	0.2	804295	804535	BlankScreen	ANTI	17	2	False	red	600	[ 90 570 405 675]	[1350 1830  405  675]
163.278	1.0	804535	805535	ELCue	ANTI	17	2	False	red	600	[ 90 570 405 675]	[1350 1830  405  675]
164.677	2.0	805934	807970	ShowFixation	VGS	18	2	False	lime	40	[ 90 570 405 675]	[1350 1830  405  675]
166.713	0.2	807970	808205	BlankScreen	VGS	18	2	False	lime	40	[ 90 570 405 675]	[1350 1830  405  675]
166.949	1.0	808206	809206	ELCue	VGS	18	2	False	lime	40	[ 90 570 405 675]	[1350 1830  405  675]
168.351	2.0	809608	811640	ShowFixation	ANTI	19	2	False	red	600	[ 90 570 405 675]	[1350 1830  405  675]
170.383	0.2	811640	811875	BlankScreen	ANTI	19	2	False	red	600	[ 90 570 405 675]	[1350 1830  405  675]
170.619	1.0	811876	812876	ELCue	ANTI	19	2	False	red	600	[ 90 570 405 675]	[1350 1830  405  675]
172.024	6.0	813281	819310	ShowFixation	ANTI	20	2	False	red	460	[405 885 405 675]	[1035 1515  405  675]
178.054	0.2	819311	819550	BlankScreen	ANTI	20	2	False	red	460	[405 885 405 675]	[1035 1515  405  675]
178.293	1.0	819550	820550	ELCue	ANTI	20	2	False	red	460	[405 885 405 675]	[1035 1515  405  675]
179.666	2.0	820923	822952	ShowFixation	ANTI	21	2	False	red	40	[1350 1830  405  675]	[ 90 570 405 675]
181.695	0.2	822952	823187	BlankScreen	ANTI	21	2	False	red	40	[1350 1830  405  675]	[ 90 570 405 675]
181.93	1.0	823187	824187	ELCue	ANTI	21	2	False	red	40	[1350 1830  405  675]	[ 90 570 405 675]
183.343	6.0	824600	830639	ShowFixation	ANTI	22	2	False	red	40	[1350 1830  405  675]	[ 90 570 405 675]
189.382	0.2	830639	830877	BlankScreen	ANTI	22	2	False	red	40	[1350 1830  405  675]	[ 90 570 405 675]
189.621	1.0	830878	831878	ELCue	ANTI	22	2	False	red	40	[1350 1830  405  675]	[ 90 570 405 675]
191.015	6.0	832272	838313	ShowFixation	VGS	23	2	False	lime	460	[1035 1515  405  675]	[405 885 405 675]
197.056	0.2	838313	838552	BlankScreen	VGS	23	2	False	lime	460	[1035 1515  405  675]	[405 885 405 675]
197.295	1.0	838552	839552	ELCue	VGS	23	2	False	lime	460	[1035 1515  405  675]	[405 885 405 675]
198.708	2.0	839965	842004	ShowFixation	VGS	24	2	False	lime	180	[405 885 405 675]	[1035 1515  405  675]
200.747	0.2	842004	842239	BlankScreen	VGS	24	2	False	lime	180	[405 885 405 675]	[1035 1515  405  675]
200.982	1.0	842239	843239	ELCue	VGS	24	2	False	lime	180	[405 885 405 675]	[1035 1515  405  675]
202.391	2.0	843648	845674	ShowFixation	VGS	25	2	False	lime	180	[405 885 405 675]	[1035 1515  405  675]
204.417	0.2	845674	845910	BlankScreen	VGS	25	2	False	lime	180	[405 885 405 675]	[1035 1515  405  675]
204.653	1.0	845910	846910	ELCue	VGS	25	2	False	lime	180	[405 885 405 675]	[1035 1515  405  675]
206.064	6.0	847321	853361	ShowFixation	VGS	26	2	False	lime	40	[ 90 570 405 675]	[1350 1830  405  675]
212.104	0.2	853361	853601	BlankScreen	VGS	26	2	False	lime	40	[ 90 570 405 675]	[1350 1830  405  675]
212.344	1.0	853601	854601	ELCue	VGS	26	2	False	lime	40	[ 90 570 405 675]	[1350 1830  405  675]
213.755	6.0	855012	861052	ShowFixation	ANTI	27	2	False	red	40	[1350 1830  405  675]	[ 90 570 405 675]
219.795	0.2	861052	861292	BlankScreen	ANTI	27	2	False	red	40	[1350 1830  405  675]	[ 90 570 405 675]
220.035	1.0	861292	862292	ELCue	ANTI	27	2	False	red	40	[1350 1830  405  675]	[ 90 570 405 675]
221.44	6.0	862697	868727	ShowFixation	VGS	28	2	False	lime	180	[405 885 405 675]	[1035 1515  405  675]
227.47	0.2	868727	868966	BlankScreen	VGS	28	2	False	lime	180	[405 885 405 675]	[1035 1515  405  675]
227.709	1.0	868966	869966	ELCue	VGS	28	2	False	lime	180	[405 885 405 675]	[1035 1515  405  675]
229.08	6.0	870337	876367	ShowFixation	VGS	29	2	False	lime	600	[1350 1830  405  675]	[ 90 570 405 675]
235.11	0.2	876367	876607	BlankScreen	VGS	29	2	False	lime	600	[1350 1830  405  675]	[ 90 570 405 675]
235.35	1.0	876607	877607	ELCue	VGS	29	2	False	lime	600	[1350 1830  405  675]	[ 90 570 405 675]
236.745	2.0	878002	880042	ShowFixation	ANTI	30	2	False	red	40	[1350 1830  405  675]	[ 90 570 405 675]
238.785	0.2	880042	880277	BlankScreen	ANTI	30	2	False	red	40	[1350 1830  405  675]	[ 90 570 405 675]
239.02	1.0	880277	881277	ELCue	ANTI	30	2	False	red	40	[1350 1830  405  675]	[ 90 570 405 675]
240.43	2.0	881687	883712	ShowFixation	VGS	31	2	False	lime	600	[1350 1830  405  675]	[ 90 570 405 675]
242.455	0.2	883712	883947	BlankScreen	VGS	31	2	False	lime	600	[1350 1830  405  675]	[ 90 570 405 675]
242.69	1.0	883947	884947	ELCue	VGS	31	2	False	lime	600	[1350 1830  405  675]	[ 90 570 405 675]
244.064	6.0	885321	891349	ShowFixation	ANTI	32	2	False	red	180	[1035 1515  405  675]	[405 885 405 675]
250.092	0.2	891349	891588	BlankScreen	ANTI	32	2	False	red	180	[1035 1515  405  675]	[405 885 405 675]
250.331	1.0	891588	892588	ELCue	ANTI	32	2	False	red	180	[1035 1515  405  675]	[405 885 405 675]
251.722	6.0	892979	899006	ShowFixation	VGS	33	2	False	lime	180	[405 885 405 675]	[1035 1515  405  675]
257.749	0.2	899006	899246	BlankScreen	VGS	33	2	False	lime	180	[405 885 405 675]	[1035 1515  405  675]
257.989	1.0	899246	900246	ELCue	VGS	33	2	False	lime	180	[405 885 405 675]	[1035 1515  405  675]
259.381	2.0	900638	902664	ShowFixation	VGS	34	2	False	lime	460	[1035 1515  405  675]	[405 885 405 675]
261.407	0.2	902664	902899	BlankScreen	VGS	34	2	False	lime	460	[1035 1515  405  675]	[405 885 405 675]
261.642	1.0	902899	903899	ELCue	VGS	34	2	False	lime	460	[1035 1515  405  675]	[405 885 405 675]
263.058	2.0	904315	906351	ShowFixation	ANTI	35	2	False	red	180	[1035 1515  405  675]	[405 885 405 675]
265.094	0.2	906351	906586	BlankScreen	ANTI	35	2	False	red	180	[1035 1515  405  675]	[405 885 405 675]
265.329	1.0	906586	907586	ELCue	ANTI	35	2	False	red	180	[1035 1515  405  675]	[405 885 405 675]
266.743	2.0	908000	910038	ShowFixation	ANTI	36	2	False	red	600	[ 90 570 405 675]	[1350 1830  405  675]
268.781	0.2	910038	910273	BlankScreen	ANTI	36	2	False	red	600	[ 90 570 405 675]	[1350 1830  405  675]
269.016	1.0	910273	911273	ELCue	ANTI	36	2	False	red	600	[ 90 570 405 675]	[1350 1830  405  675]
270.392	6.0	911649	917675	ShowFixation	ANTI	37	2	False	red	180	[1035 1515  405  675]	[405 885 405 675]
276.418	0.2	917675	917914	BlankScreen	ANTI	37	2	False	red	180	[1035 1515  405  675]	[405 885 405 675]
276.657	1.0	917914	918914	ELCue	ANTI	37	2	False	red	180	[1035 1515  405  675]	[405 885 405 675]
278.067	6.0	919324	925349	ShowFixation	VGS	38	2	False	lime	460	[1035 1515  405  675]	[405 885 405 675]
284.092	0.2	925349	925588	BlankScreen	VGS	38	2	False	lime	460	[1035 1515  405  675]	[405 885 405 675]
284.331	1.0	925588	926588	ELCue	VGS	38	2	False	lime	460	[1035 1515  405  675]	[405 885 405 675]
285.705	6.0	926962	932990	ShowFixation	VGS	39	2	False	lime	40	[ 90 570 405 675]	[1350 1830  405  675]
291.734	0.2	932991	933229	BlankScreen	VGS	39	2	False	lime	40	[ 90 570 405 675]	[1350 1830  405  675]
291.973	1.0	933230	934230	ELCue	VGS	39	2	False	lime	40	[ 90 570 405 675]	[1350 1830  405  675]
293.384	2.0	934641	936682	ShowFixation	VGS	40	2	False	lime	460	[1035 1515  405  675]	[405 885 405 675]
295.425	0.2	936682	936917	BlankScreen	VGS	40	2	False	lime	460	[1035 1515  405  675]	[405 885 405 675]
295.66	1.0	936917	937917	ELCue	VGS	40	2	False	lime	460	[1035 1515  405  675]	[405 885 405 675]
297.068	2.0	938325	940352	ShowFixation	ANTI	41	2	False	red	180	[1035 1515  405  675]	[405 885 405 675]
299.095	0.2	940352	940588	BlankScreen	ANTI	41	2	False	red	180	[1035 1515  405  675]	[405 885 405 675]
299.331	1.0	940588	941588	ELCue	ANTI	41	2	False	red	180	[1035 1515  405  675]	[405 885 405 675]
300.742	6.0	941999	948039	ShowFixation	ANTI	42	2	False	red	460	[405 885 405 675]	[1035 1515  405  675]
306.782	0.2	948039	948278	BlankScreen	ANTI	42	2	False	red	460	[405 885 405 675]	[1035 1515  405  675]
307.021	1.0	948278	949278	ELCue	ANTI	42	2	False	red	460	[405 885 405 675]	[1035 1515  405  675]
308.417	6.0	949674	955713	ShowFixation	ANTI	43	2	False	red	600	[ 90 570 405 675]	[1350 1830  405  675]
314.456	0.2	955713	955953	BlankScreen	ANTI	43	2	False	red	600	[ 90 570 405 675]	[1350 1830  405  675]
314.696	1.0	955953	956953	ELCue	ANTI	43	2	False	red	600	[ 90 570 405 675]	[1350 1830  405  675]
316.106	2.0	957363	959404	ShowFixation	VGS	44	2	False	lime	600	[1350 1830  405  675]	[ 90 570 405 675]
318.147	0.2	959404	959640	BlankScreen	VGS	44	2	False	lime	600	[1350 1830  405  675]	[ 90 570 405 675]
318.383	1.0	959640	960640	ELCue	VGS	44	2	False	lime	600	[1350 1830  405  675]	[ 90 570 405 675]
319.788	6.0	961045	967075	ShowFixation	VGS	45	2	False	lime	600	[1350 1830  405  675]	[ 90 570 405 675]
325.818	0.2	967075	967314	BlankScreen	VGS	45	2	False	lime	600	[1350 1830  405  675]	[ 90 570 405 675]
326.057	1.0	967314	968314	ELCue	VGS	45	2	False	lime	600	[1350 1830  405  675]	[ 90 570 405 675]
327.465	2.0	968722	970749	ShowFixation	ANTI	46	2	False	red	460	[405 885 405 675]	[1035 1515  405  675]
329.492	0.2	970749	970984	BlankScreen	ANTI	46	2	False	red	460	[405 885 405 675]	[1035 1515  405  675]
329.727	1.0	970984	971984	ELCue	ANTI	46	2	False	red	460	[405 885 405 675]	[1035 1515  405  675]
331.134	2.0	972391	974419	ShowFixation	ANTI	47	2	False	red	460	[405 885 405 675]	[1035 1515  405  675]
333.162	0.2	974419	974654	BlankScreen	ANTI	47	2	False	red	460	[405 885 405 675]	[1035 1515  405  675]
333.397	1.0	974654	975654	ELCue	ANTI	47	2	False	red	460	[405 885 405 675]	[1035 1515  405  675]
334.813	2.0	976070	978106	ShowFixation	VGS	48	2	False	lime	40	[ 90 570 405 675]	[1350 1830  405  675]
336.849	0.2	978106	978341	BlankScreen	VGS	48	2	False	lime	40	[ 90 570 405 675]	[1350 1830  405  675]
337.084	1.0	978341	979341	ELCue	VGS	48	2	False	lime	40	[ 90 570 405 675]	[1350 1830  405  675]
668.794	6.0	1310051	1316089	ShowFixation	VGS	49	3	False	lime	600	[1350 1830  405  675]	[ 90 570 405 675]
674.832	0.2	1316089	1316328	BlankScreen	VGS	49	3	False	lime	600	[1350 1830  405  675]	[ 90 570 405 675]
675.071	1.0	1316328	1317328	ELCue	VGS	49	3	False	lime	600	[1350 1830  405  675]	[ 90 570 405 675]
676.483	2.0	1317740	1319780	ShowFixation	ANTI	50	3	False	red	40	[1350 1830  405  675]	[ 90 570 405 675]
678.523	0.2	1319780	1320015	BlankScreen	ANTI	50	3	False	red	40	[1350 1830  405  675]	[ 90 570 405 675]
678.758	1.0	1320015	1321015	ELCue	ANTI	50	3	False	red	40	[1350 1830  405  675]	[ 90 570 405 675]
680.168	2.0	1321425	1323450	ShowFixation	VGS	51	3	False	lime	40	[ 90 570 405 675]	[1350 1830  405  675]
682.193	0.2	1323450	1323685	BlankScreen	VGS	51	3	False	lime	40	[ 90 570 405 675]	[1350 1830  405  675]
682.428	1.0	1323685	1324685	ELCue	VGS	51	3	False	lime	40	[ 90 570 405 675]	[1350 1830  405  675]
683.84	6.0	1325097	1331137	ShowFixation	VGS	52	3	False	lime	180	[405 885 405 675]	[1035 1515  405  675]
689.88	0.2	1331137	1331376	BlankScreen	VGS	52	3	False	lime	180	[405 885 405 675]	[1035 1515  405  675]
690.119	1.0	1331376	1332376	ELCue	VGS	52	3	False	lime	180	[405 885 405 675]	[1035 1515  405  675]
691.528	2.0	1332785	1334811	ShowFixation	VGS	53	3	False	lime	460	[1035 1515  405  675]	[405 885 405 675]
693.554	0.2	1334811	1335046	BlankScreen	VGS	53	3	False	lime	460	[1035 1515  405  675]	[405 885 405 675]
693.789	1.0	1335046	1336046	ELCue	VGS	53	3	False	lime	460	[1035 1515  405  675]	[405 885 405 675]
695.195	6.0	1336452	1342481	ShowFixation	VGS	54	3	False	lime	180	[405 885 405 675]	[1035 1515  405  675]
701.224	0.2	1342481	1342721	BlankScreen	VGS	54	3	False	lime	180	[405 885 405 675]	[1035 1515  405  675]
701.464	1.0	1342721	1343721	ELCue	VGS	54	3	False	lime	180	[405 885 405 675]	[1035 1515  405  675]
702.854	2.0	1344111	1346139	ShowFixation	ANTI	55	3	False	red	180	[1035 1515  405  675]	[405 885 405 675]
704.882	0.2	1346139	1346374	BlankScreen	ANTI	55	3	False	red	180	[1035 1515  405  675]	[405 885 405 675]
705.117	1.0	1346374	1347374	ELCue	ANTI	55	3	False	red	180	[1035 1515  405  675]	[405 885 405 675]
706.508	2.0	1347765	1349793	ShowFixation	ANTI	56	3	False	red	600	[ 90 570 405 675]	[1350 1830  405  675]
708.536	0.2	1349793	1350028	BlankScreen	ANTI	56	3	False	red	600	[ 90 570 405 675]	[1350 1830  405  675]
708.771	1.0	1350028	1351028	ELCue	ANTI	56	3	False	red	600	[ 90 570 405 675]	[1350 1830  405  675]
710.183	6.0	1351440	1357480	ShowFixation	ANTI	57	3	False	red	600	[ 90 570 405 675]	[1350 1830  405  675]
716.223	0.2	1357480	1357719	BlankScreen	ANTI	57	3	False	red	600	[ 90 570 405 675]	[1350 1830  405  675]
716.462	1.0	1357719	1358719	ELCue	ANTI	57	3	False	red	600	[ 90 570 405 675]	[1350 1830  405  675]
717.871	2.0	1359128	1361154	ShowFixation	VGS	58	3	False	lime	180	[405 885 405 675]	[1035 1515  405  675]
719.897	0.2	1361154	1361389	BlankScreen	VGS	58	3	False	lime	180	[405 885 405 675]	[1035 1515  405  675]
720.132	1.0	1361389	1362389	ELCue	VGS	58	3	False	lime	180	[405 885 405 675]	[1035 1515  405  675]
721.542	2.0	1362799	1364824	ShowFixation	VGS	59	3	False	lime	600	[1350 1830  405  675]	[ 90 570 405 675]
723.567	0.2	1364824	1365059	BlankScreen	VGS	59	3	False	lime	600	[1350 1830  405  675]	[ 90 570 405 675]
723.802	1.0	1365059	1366059	ELCue	VGS	59	3	False	lime	600	[1350 1830  405  675]	[ 90 570 405 675]
725.216	6.0	1366473	1372511	ShowFixation	VGS	60	3	False	lime	600	[1350 1830  405  675]	[ 90 570 405 675]
731.254	0.2	1372511	1372750	BlankScreen	VGS	60	3	False	lime	600	[1350 1830  405  675]	[ 90 570 405 675]
731.493	1.0	1372750	1373750	ELCue	VGS	60	3	False	lime	600	[1350 1830  405  675]	[ 90 570 405 675]
732.898	2.0	1374155	1376185	ShowFixation	VGS	61	3	False	lime	40	[ 90 570 405 675]	[1350 1830  405  675]
734.928	0.2	1376185	1376421	BlankScreen	VGS	61	3	False	lime	40	[ 90 570 405 675]	[1350 1830  405  675]
735.164	1.0	1376421	1377421	ELCue	VGS	61	3	False	lime	40	[ 90 570 405 675]	[1350 1830  405  675]
736.566	6.0	1377823	1383856	ShowFixation	VGS	62	3	False	lime	460	[1035 1515  405  675]	[405 885 405 675]
742.599	0.2	1383856	1384095	BlankScreen	VGS	62	3	False	lime	460	[1035 1515  405  675]	[405 885 405 675]
742.838	1.0	1384095	1385095	ELCue	VGS	62	3	False	lime	460	[1035 1515  405  675]	[405 885 405 675]
744.229	6.0	1385486	1391513	ShowFixation	VGS	63	3	False	lime	40	[ 90 570 405 675]	[1350 1830  405  675]
750.256	0.2	1391513	1391752	BlankScreen	VGS	63	3	False	lime	40	[ 90 570 405 675]	[1350 1830  405  675]
750.495	1.0	1391752	1392752	ELCue	VGS	63	3	False	lime	40	[ 90 570 405 675]	[1350 1830  405  675]
751.901	6.0	1393158	1399187	ShowFixation	VGS	64	3	False	lime	40	[ 90 570 405 675]	[1350 1830  405  675]
757.93	0.2	1399187	1399427	BlankScreen	VGS	64	3	False	lime	40	[ 90 570 405 675]	[1350 1830  405  675]
758.17	1.0	1399427	1400427	ELCue	VGS	64	3	False	lime	40	[ 90 570 405 675]	[1350 1830  405  675]
759.576	6.0	1400833	1406863	ShowFixation	ANTI	65	3	False	red	40	[1350 1830  405  675]	[ 90 570 405 675]
765.606	0.2	1406863	1407102	BlankScreen	ANTI	65	3	False	red	40	[1350 1830  405  675]	[ 90 570 405 675]
765.845	1.0	1407102	1408102	ELCue	ANTI	65	3	False	red	40	[1350 1830  405  675]	[ 90 570 405 675]
767.255	2.0	1408512	1410536	ShowFixation	VGS	66	3	False	lime	460	[1035 1515  405  675]	[405 885 405 675]
769.28	0.2	1410537	1410772	BlankScreen	VGS	66	3	False	lime	460	[1035 1515  405  675]	[405 885 405 675]
769.515	1.0	1410772	1411772	ELCue	VGS	66	3	False	lime	460	[1035 1515  405  675]	[405 885 405 675]
770.906	2.0	1412163	1414190	ShowFixation	ANTI	67	3	False	red	460	[405 885 405 675]	[1035 1515  405  675]
772.933	0.2	1414190	1414426	BlankScreen	ANTI	67	3	False	red	460	[405 885 405 675]	[1035 1515  405  675]
773.169	1.0	1414426	1415426	ELCue	ANTI	67	3	False	red	460	[405 885 405 675]	[1035 1515  405  675]
774.58	6.0	1415837	1421877	ShowFixation	ANTI	68	3	False	red	460	[405 885 405 675]	[1035 1515  405  675]
780.62	0.2	1421877	1422117	BlankScreen	ANTI	68	3	False	red	460	[405 885 405 675]	[1035 1515  405  675]
780.86	1.0	1422117	1423117	ELCue	ANTI	68	3	False	red	460	[405 885 405 675]	[1035 1515  405  675]
782.267	2.0	1423524	1425552	ShowFixation	ANTI	69	3	False	red	180	[1035 1515  405  675]	[405 885 405 675]
784.295	0.2	1425552	1425787	BlankScreen	ANTI	69	3	False	red	180	[1035 1515  405  675]	[405 885 405 675]
784.53	1.0	1425787	1426787	ELCue	ANTI	69	3	False	red	180	[1035 1515  405  675]	[405 885 405 675]
785.926	2.0	1427183	1429222	ShowFixation	ANTI	70	3	False	red	460	[405 885 405 675]	[1035 1515  405  675]
787.965	0.2	1429222	1429457	BlankScreen	ANTI	70	3	False	red	460	[405 885 405 675]	[1035 1515  405  675]
788.2	1.0	1429457	1430457	ELCue	ANTI	70	3	False	red	460	[405 885 405 675]	[1035 1515  405  675]
789.608	6.0	1430865	1436892	ShowFixation	ANTI	71	3	False	red	180	[1035 1515  405  675]	[405 885 405 675]
795.635	0.2	1436892	1437132	BlankScreen	ANTI	71	3	False	red	180	[1035 1515  405  675]	[405 885 405 675]
795.875	1.0	1437132	1438132	ELCue	ANTI	71	3	False	red	180	[1035 1515  405  675]	[405 885 405 675]
797.264	2.0	1438521	1440550	ShowFixation	VGS	72	3	False	lime	180	[405 885 405 675]	[1035 1515  405  675]
799.293	0.2	1440550	1440785	BlankScreen	VGS	72	3	False	lime	180	[405 885 405 675]	[1035 1515  405  675]
799.528	1.0	1440785	1441785	ELCue	VGS	72	3	False	lime	180	[405 885 405 675]	[1035 1515  405  675]
800.94	6.0	1442197	1448237	ShowFixation	ANTI	73	3	False	red	180	[1035 1515  405  675]	[405 885 405 675]
806.98	0.2	1448237	1448476	BlankScreen	ANTI	73	3	False	red	180	[1035 1515  405  675]	[405 885 405 675]
807.219	1.0	1448476	1449476	ELCue	ANTI	73	3	False	red	180	[1035 1515  405  675]	[405 885 405 675]
808.63	6.0	1449887	1455928	ShowFixation	ANTI	74	3	False	red	600	[ 90 570 405 675]	[1350 1830  405  675]
814.671	0.2	1455928	1456167	BlankScreen	ANTI	74	3	False	red	600	[ 90 570 405 675]	[1350 1830  405  675]
814.91	1.0	1456167	1457167	ELCue	ANTI	74	3	False	red	600	[ 90 570 405 675]	[1350 1830  405  675]
816.314	2.0	1457571	1459602	ShowFixation	ANTI	75	3	False	red	40	[1350 1830  405  675]	[ 90 570 405 675]
818.345	0.2	1459602	1459837	BlankScreen	ANTI	75	3	False	red	40	[1350 1830  405  675]	[ 90 570 405 675]
818.58	1.0	1459837	1460837	ELCue	ANTI	75	3	False	red	40	[1350 1830  405  675]	[ 90 570 405 675]
819.986	2.0	1461243	1463272	ShowFixation	ANTI	76	3	False	red	600	[ 90 570 405 675]	[1350 1830  405  675]
822.015	0.2	1463272	1463508	BlankScreen	ANTI	76	3	False	red	600	[ 90 570 405 675]	[1350 1830  405  675]
822.251	1.0	1463508	1464508	ELCue	ANTI	76	3	False	red	600	[ 90 570 405 675]	[1350 1830  405  675]
823.662	6.0	1464919	1470959	ShowFixation	ANTI	77	3	False	red	460	[405 885 405 675]	[1035 1515  405  675]
829.702	0.2	1470959	1471198	BlankScreen	ANTI	77	3	False	red	460	[405 885 405 675]	[1035 1515  405  675]
829.941	1.0	1471198	1472198	ELCue	ANTI	77	3	False	red	460	[405 885 405 675]	[1035 1515  405  675]
831.346	2.0	1472603	1474633	ShowFixation	VGS	78	3	False	lime	600	[1350 1830  405  675]	[ 90 570 405 675]
833.376	0.2	1474633	1474869	BlankScreen	VGS	78	3	False	lime	600	[1350 1830  405  675]	[ 90 570 405 675]
833.612	1.0	1474869	1475869	ELCue	VGS	78	3	False	lime	600	[1350 1830  405  675]	[ 90 570 405 675]
835.016	6.0	1476273	1482304	ShowFixation	ANTI	79	3	False	red	40	[1350 1830  405  675]	[ 90 570 405 675]
841.047	0.2	1482304	1482543	BlankScreen	ANTI	79	3	False	red	40	[1350 1830  405  675]	[ 90 570 405 675]
841.286	1.0	1482543	1483543	ELCue	ANTI	79	3	False	red	40	[1350 1830  405  675]	[ 90 570 405 675]
842.653	6.0	1483910	1489945	ShowFixation	VGS	80	3	False	lime	460	[1035 1515  405  675]	[405 885 405 675]
848.688	0.2	1489945	1490184	BlankScreen	VGS	80	3	False	lime	460	[1035 1515  405  675]	[405 885 405 675]
848.927	1.0	1490184	1491184	ELCue	VGS	80	3	False	lime	460	[1035 1515  405  675]	[405 885 405 675]
888.379	6.0	1529636	1535674	ShowFixation	ANTI	81	4	False	red	600	[ 90 570 405 675]	[1350 1830  405  675]
894.417	0.2	1535674	1535913	BlankScreen	ANTI	81	4	False	red	600	[ 90 570 405 675]	[1350 1830  405  675]
894.656	1.0	1535913	1536913	ELCue	ANTI	81	4	False	red	600	[ 90 570 405 675]	[1350 1830  405  675]
896.069	2.0	1537326	1539365	ShowFixation	VGS	82	4	False	lime	600	[1350 1830  405  675]	[ 90 570 405 675]
898.108	0.2	1539365	1539600	BlankScreen	VGS	82	4	False	lime	600	[1350 1830  405  675]	[ 90 570 405 675]
898.343	1.0	1539600	1540600	ELCue	VGS	82	4	False	lime	600	[1350 1830  405  675]	[ 90 570 405 675]
899.754	6.0	1541011	1547052	ShowFixation	ANTI	83	4	False	red	600	[ 90 570 405 675]	[1350 1830  405  675]
905.795	0.2	1547052	1547291	BlankScreen	ANTI	83	4	False	red	600	[ 90 570 405 675]	[1350 1830  405  675]
906.034	1.0	1547291	1548291	ELCue	ANTI	83	4	False	red	600	[ 90 570 405 675]	[1350 1830  405  675]
907.443	2.0	1548700	1550726	ShowFixation	ANTI	84	4	False	red	40	[1350 1830  405  675]	[ 90 570 405 675]
909.469	0.2	1550726	1550962	BlankScreen	ANTI	84	4	False	red	40	[1350 1830  405  675]	[ 90 570 405 675]
909.705	1.0	1550962	1551962	ELCue	ANTI	84	4	False	red	40	[1350 1830  405  675]	[ 90 570 405 675]
911.113	2.0	1552370	1554397	ShowFixation	ANTI	85	4	False	red	460	[405 885 405 675]	[1035 1515  405  675]
913.14	0.2	1554397	1554632	BlankScreen	ANTI	85	4	False	red	460	[405 885 405 675]	[1035 1515  405  675]
913.375	1.0	1554632	1555632	ELCue	ANTI	85	4	False	red	460	[405 885 405 675]	[1035 1515  405  675]
914.787	2.0	1556044	1558083	ShowFixation	VGS	86	4	False	lime	460	[1035 1515  405  675]	[405 885 405 675]
916.826	0.2	1558083	1558319	BlankScreen	VGS	86	4	False	lime	460	[1035 1515  405  675]	[405 885 405 675]
917.062	1.0	1558319	1559319	ELCue	VGS	86	4	False	lime	460	[1035 1515  405  675]	[405 885 405 675]
918.473	2.0	1559730	1561770	ShowFixation	ANTI	87	4	False	red	40	[1350 1830  405  675]	[ 90 570 405 675]
920.513	0.2	1561770	1562006	BlankScreen	ANTI	87	4	False	red	40	[1350 1830  405  675]	[ 90 570 405 675]
920.749	1.0	1562006	1563006	ELCue	ANTI	87	4	False	red	40	[1350 1830  405  675]	[ 90 570 405 675]
922.159	2.0	1563416	1565441	ShowFixation	VGS	88	4	False	lime	40	[ 90 570 405 675]	[1350 1830  405  675]
924.184	0.2	1565441	1565676	BlankScreen	VGS	88	4	False	lime	40	[ 90 570 405 675]	[1350 1830  405  675]
924.419	1.0	1565676	1566676	ELCue	VGS	88	4	False	lime	40	[ 90 570 405 675]	[1350 1830  405  675]
925.829	6.0	1567086	1573111	ShowFixation	VGS	89	4	False	lime	460	[1035 1515  405  675]	[405 885 405 675]
931.854	0.2	1573111	1573350	BlankScreen	VGS	89	4	False	lime	460	[1035 1515  405  675]	[405 885 405 675]
932.093	1.0	1573350	1574350	ELCue	VGS	89	4	False	lime	460	[1035 1515  405  675]	[405 885 405 675]
933.507	6.0	1574764	1580802	ShowFixation	VGS	90	4	False	lime	180	[405 885 405 675]	[1035 1515  405  675]
939.545	0.2	1580802	1581041	BlankScreen	VGS	90	4	False	lime	180	[405 885 405 675]	[1035 1515  405  675]
939.784	1.0	1581041	1582041	ELCue	VGS	90	4	False	lime	180	[405 885 405 675]	[1035 1515  405  675]
941.196	2.0	1582453	1584493	ShowFixation	ANTI	91	4	False	red	180	[1035 1515  405  675]	[405 885 405 675]
943.236	0.2	1584493	1584728	BlankScreen	ANTI	91	4	False	red	180	[1035 1515  405  675]	[405 885 405 675]
943.471	1.0	1584728	1585728	ELCue	ANTI	91	4	False	red	180	[1035 1515  405  675]	[405 885 405 675]
944.88	6.0	1586137	1592163	ShowFixation	VGS	92	4	False	lime	40	[ 90 570 405 675]	[1350 1830  405  675]
950.906	0.2	1592163	1592402	BlankScreen	VGS	92	4	False	lime	40	[ 90 570 405 675]	[1350 1830  405  675]
951.145	1.0	1592402	1593402	ELCue	VGS	92	4	False	lime	40	[ 90 570 405 675]	[1350 1830  405  675]
952.553	2.0	1593810	1595837	ShowFixation	VGS	93	4	False	lime	460	[1035 1515  405  675]	[405 885 405 675]
954.58	0.2	1595837	1596073	BlankScreen	VGS	93	4	False	lime	460	[1035 1515  405  675]	[405 885 405 675]
954.816	1.0	1596073	1597073	ELCue	VGS	93	4	False	lime	460	[1035 1515  405  675]	[405 885 405 675]
956.219	6.0	1597476	1603508	ShowFixation	VGS	94	4	False	lime	600	[1350 1830  405  675]	[ 90 570 405 675]
962.251	0.2	1603508	1603747	BlankScreen	VGS	94	4	False	lime	600	[1350 1830  405  675]	[ 90 570 405 675]
962.49	1.0	1603747	1604747	ELCue	VGS	94	4	False	lime	600	[1350 1830  405  675]	[ 90 570 405 675]
963.899	2.0	1605156	1607182	ShowFixation	ANTI	95	4	False	red	600	[ 90 570 405 675]	[1350 1830  405  675]
965.925	0.2	1607182	1607417	BlankScreen	ANTI	95	4	False	red	600	[ 90 570 405 675]	[1350 1830  405  675]
966.16	1.0	1607417	1608417	ELCue	ANTI	95	4	False	red	600	[ 90 570 405 675]	[1350 1830  405  675]
967.566	6.0	1608823	1614852	ShowFixation	ANTI	96	4	False	red	40	[1350 1830  405  675]	[ 90 570 405 675]
973.595	0.2	1614852	1615091	BlankScreen	ANTI	96	4	False	red	40	[1350 1830  405  675]	[ 90 570 405 675]
973.835	1.0	1615092	1616092	ELCue	ANTI	96	4	False	red	40	[1350 1830  405  675]	[ 90 570 405 675]
975.244	6.0	1616501	1622526	ShowFixation	VGS	97	4	False	lime	460	[1035 1515  405  675]	[405 885 405 675]
981.269	0.2	1622526	1622766	BlankScreen	VGS	97	4	False	lime	460	[1035 1515  405  675]	[405 885 405 675]
981.509	1.0	1622766	1623766	ELCue	VGS	97	4	False	lime	460	[1035 1515  405  675]	[405 885 405 675]
982.919	6.0	1624176	1630201	ShowFixation	ANTI	98	4	False	red	460	[405 885 405 675]	[1035 1515  405  675]
988.945	0.2	1630202	1630440	BlankScreen	ANTI	98	4	False	red	460	[405 885 405 675]	[1035 1515  405  675]
989.183	1.0	1630440	1631440	ELCue	ANTI	98	4	False	red	460	[405 885 405 675]	[1035 1515  405  675]
990.587	2.0	1631844	1633875	ShowFixation	ANTI	99	4	False	red	600	[ 90 570 405 675]	[1350 1830  405  675]
992.618	0.2	1633875	1634110	BlankScreen	ANTI	99	4	False	red	600	[ 90 570 405 675]	[1350 1830  405  675]
992.853	1.0	1634110	1635110	ELCue	ANTI	99	4	False	red	600	[ 90 570 405 675]	[1350 1830  405  675]
994.243	6.0	1635500	1641529	ShowFixation	ANTI	100	4	False	red	40	[1350 1830  405  675]	[ 90 570 405 675]
1000.272	0.2	1641529	1641768	BlankScreen	ANTI	100	4	False	red	40	[1350 1830  405  675]	[ 90 570 405 675]
1000.511	1.0	1641768	1642768	ELCue	ANTI	100	4	False	red	40	[1350 1830  405  675]	[ 90 570 405 675]
1001.921	2.0	1643178	1645203	ShowFixation	VGS	101	4	False	lime	180	[405 885 405 675]	[1035 1515  405  675]
1003.946	0.2	1645203	1645438	BlankScreen	VGS	101	4	False	lime	180	[405 885 405 675]	[1035 1515  405  675]
1004.181	1.0	1645438	1646438	ELCue	VGS	101	4	False	lime	180	[405 885 405 675]	[1035 1515  405  675]
1005.574	6.0	1646831	1652857	ShowFixation	VGS	102	4	False	lime	600	[1350 1830  405  675]	[ 90 570 405 675]
1011.6	0.2	1652857	1653097	BlankScreen	VGS	102	4	False	lime	600	[1350 1830  405  675]	[ 90 570 405 675]
1011.84	1.0	1653097	1654097	ELCue	VGS	102	4	False	lime	600	[1350 1830  405  675]	[ 90 570 405 675]
1013.252	2.0	1654509	1656548	ShowFixation	VGS	103	4	False	lime	600	[1350 1830  405  675]	[ 90 570 405 675]
1015.291	0.2	1656548	1656784	BlankScreen	VGS	103	4	False	lime	600	[1350 1830  405  675]	[ 90 570 405 675]
1015.527	1.0	1656784	1657784	ELCue	VGS	103	4	False	lime	600	[1350 1830  405  675]	[ 90 570 405 675]
1016.937	2.0	1658194	1660219	ShowFixation	ANTI	104	4	False	red	460	[405 885 405 675]	[1035 1515  405  675]
1018.962	0.2	1660219	1660454	BlankScreen	ANTI	104	4	False	red	460	[405 885 405 675]	[1035 1515  405  675]
1019.197	1.0	1660454	1661454	ELCue	ANTI	104	4	False	red	460	[405 885 405 675]	[1035 1515  405  675]
1020.607	6.0	1661864	1667889	ShowFixation	ANTI	105	4	False	red	460	[405 885 405 675]	[1035 1515  405  675]
1026.632	0.2	1667889	1668128	BlankScreen	ANTI	105	4	False	red	460	[405 885 405 675]	[1035 1515  405  675]
1026.871	1.0	1668128	1669128	ELCue	ANTI	105	4	False	red	460	[405 885 405 675]	[1035 1515  405  675]
1028.279	6.0	1669536	1675563	ShowFixation	ANTI	106	4	False	red	180	[1035 1515  405  675]	[405 885 405 675]
1034.306	0.2	1675563	1675802	BlankScreen	ANTI	106	4	False	red	180	[1035 1515  405  675]	[405 885 405 675]
1034.545	1.0	1675802	1676802	ELCue	ANTI	106	4	False	red	180	[1035 1515  405  675]	[405 885 405 675]
1035.954	6.0	1677211	1683237	ShowFixation	ANTI	107	4	False	red	180	[1035 1515  405  675]	[405 885 405 675]
1041.98	0.2	1683237	1683477	BlankScreen	ANTI	107	4	False	red	180	[1035 1515  405  675]	[405 885 405 675]
1042.22	1.0	1683477	1684477	ELCue	ANTI	107	4	False	red	180	[1035 1515  405  675]	[405 885 405 675]
1043.59	2.0	1684847	1686878	ShowFixation	ANTI	108	4	False	red	180	[1035 1515  405  675]	[405 885 405 675]
1045.621	0.2	1686878	1687114	BlankScreen	ANTI	108	4	False	red	180	[1035 1515  405  675]	[405 885 405 675]
1045.857	1.0	1687114	1688114	ELCue	ANTI	108	4	False	red	180	[1035 1515  405  675]	[405 885 405 675]
1047.265	2.0	1688522	1690549	ShowFixation	VGS	109	4	False	lime	180	[405 885 405 675]	[1035 1515  405  675]
1049.292	0.2	1690549	1690784	BlankScreen	VGS	109	4	False	lime	180	[405 885 405 675]	[1035 1515  405  675]
1049.527	1.0	1690784	1691784	ELCue	VGS	109	4	False	lime	180	[405 885 405 675]	[1035 1515  405  675]
1050.901	6.0	1692158	1698185	ShowFixation	VGS	110	4	False	lime	180	[405 885 405 675]	[1035 1515  405  675]
1056.928	0.2	1698185	1698425	BlankScreen	VGS	110	4	False	lime	180	[405 885 405 675]	[1035 1515  405  675]
1057.168	1.0	1698425	1699425	ELCue	VGS	110	4	False	lime	180	[405 885 405 675]	[1035 1515  405  675]
1058.558	2.0	1699815	1701843	ShowFixation	VGS	111	4	False	lime	40	[ 90 570 405 675]	[1350 1830  405  675]
1060.586	0.2	1701843	1702078	BlankScreen	VGS	111	4	False	lime	40	[ 90 570 405 675]	[1350 1830  405  675]
1060.821	1.0	1702078	1703078	ELCue	VGS	111	4	False	lime	40	[ 90 570 405 675]	[1350 1830  405  675]
1062.23	6.0	1703487	1709513	ShowFixation	VGS	112	4	False	lime	40	[ 90 570 405 675]	[1350 1830  405  675]
1068.256	0.2	1709513	1709753	BlankScreen	VGS	112	4	False	lime	40	[ 90 570 405 675]	[1350 1830  405  675]
1068.496	1.0	1709753	1710753	ELCue	VGS	112	4	False	lime	40	[ 90 570 405 675]	[1350 1830  405  675]
