participant_id	trial_type	stop_signal_delay	go_reaction_time	correct_go	successful_stop
sub-24050	Go	n/a	0.724	1	n/a
sub-24050	Go	n/a	0.425	1	n/a
sub-24050	Go	n/a	0.446	1	n/a
sub-24050	Go	n/a	0.568	1	n/a
sub-24050	Stop	0.750	0.000	0	0
sub-24050	Go	n/a	0.782	1	n/a
sub-24050	Stop	0.800	0.000	0	1
sub-24050	Go	n/a	0.645	1	n/a
sub-24050	Go	n/a	0.474	1	n/a
sub-24050	Go	n/a	0.550	1	n/a
sub-24050	Go	n/a	0.497	1	n/a
sub-24050	Stop	0.750	0.000	0	0
sub-24050	Stop	0.800	0.000	0	1
sub-24050	Stop	0.750	0.000	0	1
sub-24050	Go	n/a	0.749	1	n/a
sub-24050	Stop	0.700	0.000	0	1
sub-24050	Go	n/a	0.703	1	n/a
sub-24050	Go	n/a	0.625	1	n/a
sub-24050	Go	n/a	0.728	1	n/a
sub-24050	Go	n/a	0.624	1	n/a
sub-24050	Go	n/a	0.453	1	n/a
sub-24050	Go	n/a	0.481	1	n/a
sub-24050	Go	n/a	0.633	1	n/a
sub-24050	Stop	0.750	0.000	0	1
sub-24050	Go	n/a	0.784	1	n/a
sub-24050	Go	n/a	0.653	1	n/a
sub-24050	Go	n/a	0.652	1	n/a
sub-24050	Go	n/a	0.454	1	n/a
sub-24050	Go	n/a	0.406	1	n/a
sub-24050	Stop	0.700	0.000	0	0
sub-24050	Go	n/a	0.561	1	n/a
sub-24050	Stop	0.750	0.000	0	1
sub-24050	Go	n/a	0.593	1	n/a
sub-24050	Stop	0.700	0.000	0	1
sub-24050	Go	n/a	0.614	1	n/a
sub-24050	Go	n/a	0.829	1	n/a
sub-24050	Stop	0.650	0.000	0	1
sub-24050	Stop	0.600	0.000	0	0
sub-24050	Stop	0.650	0.000	0	1
sub-24050	Stop	0.600	0.000	0	1
sub-24050	Go	n/a	0.818	1	n/a
sub-24050	Go	n/a	0.695	1	n/a
sub-24050	Go	n/a	0.661	1	n/a
sub-24050	Go	n/a	0.558	1	n/a
sub-24050	Go	n/a	0.532	1	n/a
sub-24050	Stop	0.550	0.000	0	0
sub-24050	Go	n/a	0.621	1	n/a
sub-24050	Go	n/a	0.604	1	n/a
sub-24050	Go	n/a	0.555	1	n/a
sub-24050	Go	n/a	0.508	1	n/a
sub-24050	Go	n/a	0.472	1	n/a
sub-24050	Go	n/a	0.366	1	n/a
sub-24050	Go	n/a	0.566	1	n/a
sub-24050	Go	n/a	0.557	1	n/a
sub-24050	Stop	0.600	0.000	0	1
sub-24050	Go	n/a	0.605	1	n/a
sub-24050	Go	n/a	0.853	1	n/a
sub-24050	Go	n/a	0.609	1	n/a
sub-24050	Stop	0.550	0.000	0	0
sub-24050	Stop	0.600	0.000	0	1
sub-24050	Go	n/a	0.837	1	n/a
sub-24050	Go	n/a	0.795	1	n/a
sub-24050	Go	n/a	0.681	1	n/a
sub-24050	Go	n/a	0.540	1	n/a
sub-24050	Stop	0.550	0.000	0	0
sub-24050	Go	n/a	0.000	0	n/a
sub-24050	Go	n/a	0.576	1	n/a
sub-24050	Go	n/a	0.587	1	n/a
sub-24050	Go	n/a	0.461	1	n/a
sub-24050	Go	n/a	0.470	1	n/a
sub-24050	Go	n/a	0.762	1	n/a
sub-24050	Stop	0.600	0.000	0	0
sub-24050	Go	n/a	0.588	1	n/a
sub-24050	Stop	0.650	0.000	0	1
sub-24050	Go	n/a	0.723	1	n/a
sub-24050	Go	n/a	0.995	1	n/a
sub-24050	Stop	0.600	0.000	0	1
sub-24050	Stop	0.550	0.000	0	1
sub-24050	Go	n/a	0.549	1	n/a
sub-24050	Go	n/a	0.661	1	n/a
sub-24050	Go	n/a	0.544	1	n/a
sub-24050	Go	n/a	0.662	1	n/a
sub-24050	Go	n/a	0.767	1	n/a
sub-24050	Go	n/a	0.740	1	n/a
sub-24050	Go	n/a	0.673	1	n/a
sub-24050	Go	n/a	0.592	1	n/a
sub-24050	Go	n/a	0.567	1	n/a
sub-24050	Stop	0.500	0.000	0	0
sub-24050	Go	n/a	0.842	1	n/a
sub-24050	Stop	0.550	0.000	0	1
sub-24050	Go	n/a	0.588	1	n/a
sub-24050	Go	n/a	0.000	0	n/a
sub-24050	Go	n/a	0.713	1	n/a
sub-24050	Go	n/a	0.000	0	n/a
sub-24050	Stop	0.500	0.000	0	1
sub-24050	Stop	0.450	0.000	0	1
sub-24050	Go	n/a	0.889	1	n/a
sub-24050	Go	n/a	0.000	0	n/a
sub-24050	Go	n/a	0.657	1	n/a
sub-24050	Go	n/a	0.000	0	n/a
sub-24050	Stop	0.400	0.000	0	1
sub-24050	Go	n/a	0.000	0	n/a
sub-24050	Go	n/a	0.000	0	n/a
sub-24050	Go	n/a	0.762	1	n/a
sub-24050	Go	n/a	0.762	1	n/a
sub-24050	Stop	0.750	0.000	0	1
sub-24050	Go	n/a	0.577	1	n/a
sub-24050	Stop	0.700	0.000	0	1
sub-24050	Go	n/a	0.996	0	n/a
sub-24050	Stop	0.650	0.000	0	1
sub-24050	Go	n/a	0.803	1	n/a
sub-24050	Go	n/a	0.000	0	n/a
sub-24050	Stop	0.600	0.000	0	1
sub-24050	Stop	0.550	0.000	0	1
sub-24050	Go	n/a	0.654	1	n/a
sub-24050	Stop	0.500	0.000	0	1
sub-24050	Go	n/a	0.995	1	n/a
sub-24050	Go	n/a	0.843	1	n/a
sub-24050	Stop	0.450	0.000	0	1
sub-24050	Stop	0.400	0.000	0	1
sub-24050	Go	n/a	0.000	0	n/a
sub-24050	Stop	0.350	0.000	0	1
sub-24050	Go	n/a	0.796	1	n/a
sub-24050	Go	n/a	0.899	1	n/a
sub-24050	Go	n/a	0.836	1	n/a
sub-24050	Go	n/a	0.922	1	n/a
sub-24050	Go	n/a	0.691	1	n/a
sub-24050	Go	n/a	0.707	1	n/a
sub-24050	Go	n/a	0.773	1	n/a
sub-24050	Go	n/a	0.678	1	n/a
sub-24050	Go	n/a	0.397	1	n/a
sub-24050	Go	n/a	0.581	1	n/a
sub-24050	Go	n/a	0.601	1	n/a
sub-24050	Go	n/a	0.618	1	n/a
sub-24050	Go	n/a	0.665	1	n/a
sub-24050	Go	n/a	0.672	1	n/a
sub-24050	Go	n/a	0.701	1	n/a
sub-24050	Stop	0.300	0.568	1	0
sub-24050	Go	n/a	0.999	1	n/a
sub-24050	Go	n/a	0.747	1	n/a
sub-24050	Stop	0.350	0.000	0	0
sub-24050	Go	n/a	0.000	0	n/a
sub-24050	Go	n/a	0.500	1	n/a
sub-24050	Go	n/a	0.561	1	n/a
sub-24050	Stop	0.400	0.417	1	0
sub-24050	Go	n/a	0.000	0	n/a
sub-24050	Go	n/a	0.476	1	n/a
sub-24050	Go	n/a	0.799	1	n/a
sub-24050	Go	n/a	0.805	1	n/a
sub-24050	Go	n/a	0.787	1	n/a
sub-24050	Go	n/a	0.711	1	n/a
sub-24050	Stop	0.450	0.000	0	0
sub-24050	Go	n/a	0.925	1	n/a
sub-24050	Go	n/a	0.787	1	n/a
sub-24050	Go	n/a	0.813	1	n/a
sub-24050	Stop	0.500	0.000	0	0
sub-24050	Go	n/a	0.649	1	n/a
sub-24050	Go	n/a	0.654	1	n/a
sub-24050	Go	n/a	0.778	1	n/a
sub-24050	Go	n/a	0.849	1	n/a
sub-24050	Go	n/a	0.742	1	n/a
sub-24050	Go	n/a	0.701	1	n/a
sub-24050	Stop	0.550	0.000	0	1
sub-24050	Stop	0.500	0.446	1	0
sub-24050	Stop	0.550	0.000	0	1
sub-24050	Go	n/a	0.651	1	n/a
sub-24050	Go	n/a	0.000	0	n/a
sub-24050	Stop	0.500	0.000	0	0
sub-24050	Go	n/a	0.000	0	n/a
sub-24050	Go	n/a	0.552	1	n/a
sub-24050	Go	n/a	0.712	1	n/a
sub-24050	Go	n/a	0.694	1	n/a
sub-24050	Stop	0.550	0.000	0	1
sub-24050	Go	n/a	0.676	1	n/a
sub-24050	Go	n/a	0.748	1	n/a
sub-24050	Go	n/a	0.936	1	n/a
sub-24050	Go	n/a	0.756	1	n/a
sub-24050	Go	n/a	0.671	1	n/a
sub-24050	Go	n/a	0.594	1	n/a
sub-24050	Stop	0.500	0.000	0	1
sub-24050	Stop	0.450	0.000	0	1
sub-24050	Go	n/a	0.922	1	n/a
sub-24050	Go	n/a	0.881	1	n/a
sub-24050	Go	n/a	0.815	1	n/a
sub-24050	Go	n/a	0.672	1	n/a
sub-24050	Go	n/a	0.804	1	n/a
sub-24050	Go	n/a	0.914	1	n/a
sub-24050	Stop	0.400	0.000	0	1
sub-24050	Go	n/a	0.000	0	n/a
sub-24050	Go	n/a	0.832	1	n/a
sub-24050	Go	n/a	0.833	1	n/a
sub-24050	Go	n/a	0.920	1	n/a
sub-24050	Go	n/a	0.884	1	n/a
sub-24050	Go	n/a	0.964	1	n/a
sub-24050	Stop	0.750	0.000	0	1
sub-24050	Go	n/a	0.000	0	n/a
sub-24050	Go	n/a	0.690	1	n/a
sub-24050	Stop	0.700	0.000	0	0
sub-24050	Go	n/a	0.889	1	n/a
sub-24050	Stop	0.750	0.000	0	1
sub-24050	Go	n/a	0.717	1	n/a
sub-24050	Go	n/a	0.765	1	n/a
sub-24050	Go	n/a	0.836	1	n/a
sub-24050	Go	n/a	0.818	1	n/a
sub-24050	Stop	0.700	0.000	0	1
sub-24050	Go	n/a	0.527	1	n/a
sub-24050	Go	n/a	0.565	1	n/a
sub-24050	Go	n/a	0.511	1	n/a
sub-24050	Stop	0.650	0.000	0	1
sub-24050	Go	n/a	0.000	0	n/a
sub-24050	Go	n/a	0.000	0	n/a
sub-24050	Stop	0.600	0.000	0	1
sub-24050	Go	n/a	0.931	1	n/a
sub-24050	Go	n/a	0.743	1	n/a
sub-24050	Go	n/a	0.969	1	n/a
sub-24050	Go	n/a	0.629	1	n/a
sub-24050	Go	n/a	0.701	1	n/a
sub-24050	Go	n/a	0.758	1	n/a
sub-24050	Go	n/a	0.720	1	n/a
sub-24050	Go	n/a	0.509	1	n/a
sub-24050	Stop	0.550	0.000	0	1
sub-24050	Stop	0.500	0.000	0	1
sub-24050	Go	n/a	0.923	1	n/a
sub-24050	Go	n/a	0.000	0	n/a
sub-24050	Go	n/a	0.000	0	n/a
sub-24050	Go	n/a	0.757	1	n/a
sub-24050	Go	n/a	0.746	1	n/a
sub-24050	Go	n/a	0.694	1	n/a
sub-24050	Go	n/a	0.779	1	n/a
sub-24050	Go	n/a	0.715	1	n/a
sub-24050	Go	n/a	0.858	1	n/a
sub-24050	Go	n/a	0.757	1	n/a
sub-24050	Stop	0.450	0.000	0	0
sub-24050	Go	n/a	0.806	1	n/a
sub-24050	Go	n/a	0.839	1	n/a
sub-24050	Go	n/a	0.973	1	n/a
sub-24050	Stop	0.500	0.000	0	1
sub-24050	Go	n/a	0.894	1	n/a
sub-24050	Go	n/a	0.000	0	n/a
sub-24050	Go	n/a	0.711	1	n/a
sub-24050	Go	n/a	0.910	1	n/a
sub-24050	Go	n/a	0.684	1	n/a
sub-24050	Go	n/a	0.673	1	n/a
sub-24050	Go	n/a	0.550	1	n/a
sub-24050	Go	n/a	0.667	1	n/a
sub-24050	Stop	0.450	0.544	1	0
sub-24050	Go	n/a	0.865	1	n/a
sub-24050	Go	n/a	0.723	1	n/a
sub-24050	Go	n/a	0.578	1	n/a
sub-24050	Go	n/a	0.657	1	n/a
sub-24050	Stop	0.500	0.000	0	0
sub-24050	Go	n/a	0.993	1	n/a
sub-24050	Stop	0.550	0.000	0	1
sub-24050	Stop	0.500	0.000	0	0
sub-24050	Go	n/a	0.000	0	n/a
sub-24050	Go	n/a	0.658	1	n/a
sub-24050	Go	n/a	0.438	1	n/a
sub-24050	Go	n/a	0.609	1	n/a
sub-24050	Stop	0.550	0.000	0	1
sub-24050	Go	n/a	0.525	1	n/a
sub-24050	Stop	0.500	0.000	0	0
sub-24050	Go	n/a	0.000	0	n/a
sub-24050	Go	n/a	0.655	1	n/a
sub-24050	Go	n/a	0.867	1	n/a
sub-24050	Go	n/a	0.696	1	n/a
sub-24050	Go	n/a	0.372	1	n/a
sub-24050	Stop	0.550	0.000	0	1
sub-24050	Stop	0.500	0.000	0	0
sub-24050	Go	n/a	0.914	1	n/a
sub-24050	Stop	0.550	0.000	0	1
sub-24050	Stop	0.500	0.466	1	0
sub-24050	Go	n/a	0.785	1	n/a
sub-24050	Stop	0.550	0.000	0	1
sub-24050	Go	n/a	0.587	1	n/a
sub-24050	Go	n/a	0.662	1	n/a
sub-24050	Go	n/a	0.499	1	n/a
sub-24050	Go	n/a	0.506	1	n/a
sub-24050	Stop	0.500	0.414	1	0
sub-24050	Go	n/a	0.703	1	n/a
sub-24050	Go	n/a	0.893	1	n/a
sub-24050	Go	n/a	0.000	0	n/a
sub-24050	Go	n/a	0.831	1	n/a
sub-24050	Go	n/a	0.801	1	n/a
sub-24050	Go	n/a	0.813	1	n/a
sub-24050	Go	n/a	0.574	1	n/a
sub-24050	Stop	0.750	0.000	0	1
sub-24050	Stop	0.700	0.000	0	1
sub-24050	Stop	0.650	0.000	0	1
sub-24050	Go	n/a	0.725	1	n/a
sub-24050	Go	n/a	0.789	1	n/a
sub-24050	Go	n/a	0.804	1	n/a
sub-24050	Go	n/a	0.632	1	n/a
sub-24050	Stop	0.600	0.000	0	1
sub-24050	Go	n/a	0.631	1	n/a
sub-24050	Go	n/a	0.709	1	n/a
sub-24050	Go	n/a	0.603	1	n/a
sub-24050	Stop	0.550	0.000	0	1
sub-24050	Go	n/a	0.584	1	n/a
sub-24050	Stop	0.500	0.000	0	1
sub-24050	Go	n/a	0.819	1	n/a
sub-24050	Go	n/a	0.659	1	n/a
sub-24050	Go	n/a	0.850	1	n/a
sub-24050	Go	n/a	0.704	1	n/a
sub-24050	Stop	0.450	0.000	0	1
sub-24050	Go	n/a	0.680	1	n/a
sub-24050	Go	n/a	0.762	1	n/a
sub-24050	Stop	0.400	0.000	0	0
sub-24050	Go	n/a	0.875	1	n/a
sub-24050	Stop	0.450	0.000	0	1
sub-24050	Go	n/a	0.818	1	n/a
sub-24050	Go	n/a	0.827	1	n/a
sub-24050	Go	n/a	0.993	1	n/a
sub-24050	Go	n/a	0.828	1	n/a
sub-24050	Stop	0.400	0.000	0	0
sub-24050	Go	n/a	0.000	0	n/a
sub-24050	Stop	0.450	0.000	0	1
sub-24050	Go	n/a	0.000	0	n/a
sub-24050	Go	n/a	0.514	1	n/a
sub-24050	Go	n/a	0.407	1	n/a
sub-24050	Go	n/a	0.438	1	n/a
sub-24050	Go	n/a	0.638	1	n/a
sub-24050	Go	n/a	0.606	1	n/a
sub-24050	Stop	0.400	0.000	0	1
sub-24050	Go	n/a	0.415	1	n/a
sub-24050	Go	n/a	0.801	1	n/a
sub-24050	Go	n/a	0.882	1	n/a
sub-24050	Go	n/a	0.654	1	n/a
sub-24050	Go	n/a	0.780	1	n/a
sub-24050	Go	n/a	0.678	1	n/a
sub-24050	Go	n/a	0.661	1	n/a
sub-24050	Go	n/a	0.657	1	n/a
sub-24050	Stop	0.350	0.000	0	0
sub-24050	Go	n/a	0.725	1	n/a
sub-24050	Stop	0.400	0.000	0	1
sub-24050	Go	n/a	0.827	1	n/a
sub-24050	Go	n/a	0.000	0	n/a
sub-24050	Go	n/a	0.460	1	n/a
sub-24050	Go	n/a	0.772	1	n/a
sub-24050	Go	n/a	0.902	1	n/a
sub-24050	Go	n/a	0.771	1	n/a
sub-24050	Stop	0.350	0.000	0	0
sub-24050	Go	n/a	0.937	1	n/a
sub-24050	Go	n/a	0.916	1	n/a
sub-24050	Go	n/a	0.000	0	n/a
sub-24050	Go	n/a	0.754	1	n/a
sub-24050	Stop	0.400	0.000	0	1
sub-24050	Go	n/a	0.905	1	n/a
sub-24050	Stop	0.350	0.000	0	1
sub-24050	Go	n/a	0.848	1	n/a
sub-24050	Go	n/a	0.000	0	n/a
sub-24050	Go	n/a	0.720	1	n/a
sub-24050	Go	n/a	0.943	1	n/a
sub-24050	Go	n/a	0.926	1	n/a
sub-24050	Go	n/a	0.896	1	n/a
sub-24050	Go	n/a	0.858	1	n/a
sub-24050	Go	n/a	0.992	1	n/a
sub-24050	Stop	0.300	0.000	0	0
sub-24050	Go	n/a	0.000	0	n/a
sub-24050	Go	n/a	0.955	1	n/a
sub-24050	Stop	0.350	0.000	0	0
sub-24050	Go	n/a	0.000	0	n/a
sub-24050	Stop	0.400	0.000	0	1
sub-24050	Go	n/a	0.732	1	n/a
sub-24050	Stop	0.350	0.000	0	1
sub-24050	Stop	0.300	0.000	0	1
sub-24050	Go	n/a	0.000	0	n/a
sub-24050	Go	n/a	0.000	0	n/a
sub-24050	Go	n/a	0.932	1	n/a
sub-24050	Stop	0.750	0.000	0	1
sub-24050	Go	n/a	0.791	1	n/a
sub-24050	Go	n/a	0.799	1	n/a
sub-24050	Go	n/a	0.866	1	n/a
sub-24050	Go	n/a	0.772	1	n/a
sub-24050	Go	n/a	0.693	1	n/a
sub-24050	Go	n/a	0.668	1	n/a
sub-24050	Go	n/a	0.752	1	n/a
sub-24050	Stop	0.700	0.000	0	1
sub-24050	Go	n/a	0.908	1	n/a
sub-24050	Go	n/a	0.829	1	n/a
sub-24050	Go	n/a	0.777	1	n/a
sub-24050	Stop	0.650	0.000	0	1
sub-24050	Go	n/a	0.814	1	n/a
sub-24050	Go	n/a	0.970	1	n/a
sub-24050	Go	n/a	0.858	1	n/a
sub-24050	Go	n/a	0.851	1	n/a
sub-24050	Go	n/a	0.686	1	n/a
sub-24050	Go	n/a	0.643	1	n/a
sub-24050	Go	n/a	0.746	1	n/a
sub-24050	Stop	0.600	0.000	0	1
sub-24050	Go	n/a	0.516	1	n/a
sub-24050	Go	n/a	0.865	1	n/a
sub-24050	Stop	0.550	0.000	0	1
sub-24050	Stop	0.500	0.000	0	1
sub-24050	Go	n/a	0.862	1	n/a
sub-24050	Go	n/a	0.000	0	n/a
sub-24050	Go	n/a	0.635	1	n/a
sub-24050	Go	n/a	0.603	1	n/a
sub-24050	Stop	0.450	0.000	0	0
sub-24050	Go	n/a	0.614	1	n/a
sub-24050	Go	n/a	0.638	1	n/a
sub-24050	Go	n/a	0.534	1	n/a
sub-24050	Go	n/a	0.783	1	n/a
sub-24050	Go	n/a	0.946	1	n/a
sub-24050	Go	n/a	0.000	0	n/a
sub-24050	Stop	0.500	0.000	0	0
sub-24050	Stop	0.550	0.000	0	1
sub-24050	Go	n/a	0.000	0	n/a
sub-24050	Stop	0.500	0.000	0	0
sub-24050	Go	n/a	0.000	0	n/a
sub-24050	Go	n/a	0.532	1	n/a
sub-24050	Go	n/a	0.475	1	n/a
sub-24050	Stop	0.550	0.381	1	0
sub-24050	Go	n/a	0.000	0	n/a
sub-24050	Stop	0.600	0.000	0	0
sub-24050	Go	n/a	0.834	1	n/a
sub-24050	Go	n/a	0.648	1	n/a
sub-24050	Go	n/a	0.642	1	n/a
sub-24050	Stop	0.650	0.000	0	0
sub-24050	Go	n/a	0.717	1	n/a
sub-24050	Go	n/a	0.645	1	n/a
sub-24050	Go	n/a	0.612	1	n/a
sub-24050	Stop	0.700	0.000	0	1
sub-24050	Go	n/a	0.798	1	n/a
sub-24050	Go	n/a	0.786	1	n/a
sub-24050	Stop	0.650	0.000	0	1
sub-24050	Go	n/a	0.642	1	n/a
sub-24050	Go	n/a	0.689	1	n/a
sub-24050	Go	n/a	0.720	1	n/a
sub-24050	Stop	0.600	0.000	0	1
sub-24050	Go	n/a	0.834	1	n/a
sub-24050	Go	n/a	0.805	1	n/a
sub-24050	Go	n/a	0.717	1	n/a
sub-24050	Go	n/a	0.690	1	n/a
sub-24050	Stop	0.550	0.000	0	1
sub-24050	Go	n/a	0.559	1	n/a
sub-24050	Go	n/a	0.911	1	n/a
sub-24050	Go	n/a	0.634	1	n/a
sub-24050	Stop	0.500	0.000	0	0
sub-24050	Go	n/a	0.000	0	n/a
sub-24050	Stop	0.550	0.000	0	1
sub-24050	Go	n/a	0.566	1	n/a
sub-24050	Go	n/a	0.654	1	n/a
sub-24050	Go	n/a	0.681	1	n/a
sub-24050	Go	n/a	0.734	1	n/a
sub-24050	Stop	0.500	0.000	0	0
sub-24050	Go	n/a	0.000	0	n/a
sub-24050	Go	n/a	0.802	1	n/a
sub-24050	Go	n/a	0.617	1	n/a
sub-24050	Go	n/a	0.770	1	n/a
sub-24050	Stop	0.550	0.000	0	1
sub-24050	Go	n/a	0.623	1	n/a
sub-24050	Go	n/a	0.508	1	n/a
sub-24050	Go	n/a	0.904	1	n/a
sub-24050	Go	n/a	0.920	1	n/a
sub-24050	Stop	0.500	0.000	0	1
sub-24050	Go	n/a	0.719	1	n/a
