onset	duration	startTime	stopTime	eventIdentifier	trial_type	trial_number	block_number	is_practice	fixation_color	cue_side	aoi_correct	aoi_incorrect
0.151	6.0	342891	348919	ShowFixation	VGS	1	1	True	lime	40	[ 90 570 405 675]	[1350 1830  405  675]
6.18	0.2	348920	349159	BlankScreen	VGS	1	1	True	lime	40	[ 90 570 405 675]	[1350 1830  405  675]
6.419	1.0	349159	350199	ELCue	VGS	1	1	True	lime	40	[ 90 570 405 675]	[1350 1830  405  675]
7.871	2.0	350611	353227	ShowFixation	ANTI	2	1	True	red	460	[405 885 405 675]	[1035 1515  405  675]
10.488	0.2	353228	353447	BlankScreen	ANTI	2	1	True	red	460	[405 885 405 675]	[1035 1515  405  675]
10.707	1.0	353447	354467	ELCue	ANTI	2	1	True	red	460	[405 885 405 675]	[1035 1515  405  675]
12.138	2.0	354878	357499	ShowFixation	VGS	3	1	True	lime	180	[405 885 405 675]	[1035 1515  405  675]
14.759	0.2	357499	357734	BlankScreen	VGS	3	1	True	lime	180	[405 885 405 675]	[1035 1515  405  675]
14.994	1.0	357734	358775	ELCue	VGS	3	1	True	lime	180	[405 885 405 675]	[1035 1515  405  675]
16.454	2.0	359194	361820	ShowFixation	ANTI	4	1	True	red	180	[1035 1515  405  675]	[405 885 405 675]
19.08	0.2	361820	362055	BlankScreen	ANTI	4	1	True	red	180	[1035 1515  405  675]	[405 885 405 675]
19.315	1.0	362055	363095	ELCue	ANTI	4	1	True	red	180	[1035 1515  405  675]	[405 885 405 675]
20.773	2.0	363513	366141	ShowFixation	VGS	5	1	True	lime	40	[ 90 570 405 675]	[1350 1830  405  675]
23.401	0.2	366141	366376	BlankScreen	VGS	5	1	True	lime	40	[ 90 570 405 675]	[1350 1830  405  675]
23.636	1.0	366376	367413	ELCue	VGS	5	1	True	lime	40	[ 90 570 405 675]	[1350 1830  405  675]
25.076	6.0	367816	374462	ShowFixation	VGS	6	1	True	lime	180	[405 885 405 675]	[1035 1515  405  675]
31.722	0.2	374462	374701	BlankScreen	VGS	6	1	True	lime	180	[405 885 405 675]	[1035 1515  405  675]
31.961	1.0	374701	375738	ELCue	VGS	6	1	True	lime	180	[405 885 405 675]	[1035 1515  405  675]
33.415	6.0	376155	382787	ShowFixation	VGS	7	1	True	lime	600	[1350 1830  405  675]	[ 90 570 405 675]
40.047	0.2	382787	383026	BlankScreen	VGS	7	1	True	lime	600	[1350 1830  405  675]	[ 90 570 405 675]
40.286	1.0	383026	384066	ELCue	VGS	7	1	True	lime	600	[1350 1830  405  675]	[ 90 570 405 675]
41.711	2.0	384451	387111	ShowFixation	ANTI	8	1	True	red	600	[ 90 570 405 675]	[1350 1830  405  675]
44.371	0.2	387111	387347	BlankScreen	ANTI	8	1	True	red	600	[ 90 570 405 675]	[1350 1830  405  675]
44.607	1.0	387347	388387	ELCue	ANTI	8	1	True	red	600	[ 90 570 405 675]	[1350 1830  405  675]
46.066	2.0	388806	391432	ShowFixation	ANTI	9	1	True	red	40	[1350 1830  405  675]	[ 90 570 405 675]
48.692	0.2	391432	391668	BlankScreen	ANTI	9	1	True	red	40	[1350 1830  405  675]	[ 90 570 405 675]
48.928	1.0	391668	392708	ELCue	ANTI	9	1	True	red	40	[1350 1830  405  675]	[ 90 570 405 675]
50.387	6.0	393127	399753	ShowFixation	ANTI	10	1	True	red	460	[405 885 405 675]	[1035 1515  405  675]
57.013	0.2	399753	399993	BlankScreen	ANTI	10	1	True	red	460	[405 885 405 675]	[1035 1515  405  675]
57.253	1.0	399993	401033	ELCue	ANTI	10	1	True	red	460	[405 885 405 675]	[1035 1515  405  675]
58.711	6.0	401451	408078	ShowFixation	ANTI	11	1	True	red	600	[ 90 570 405 675]	[1350 1830  405  675]
65.338	0.2	408078	408317	BlankScreen	ANTI	11	1	True	red	600	[ 90 570 405 675]	[1350 1830  405  675]
65.577	1.0	408317	409355	ELCue	ANTI	11	1	True	red	600	[ 90 570 405 675]	[1350 1830  405  675]
67.036	6.0	409776	416403	ShowFixation	VGS	12	1	True	lime	460	[1035 1515  405  675]	[405 885 405 675]
73.663	0.2	416403	416642	BlankScreen	VGS	12	1	True	lime	460	[1035 1515  405  675]	[405 885 405 675]
73.902	1.0	416642	417682	ELCue	VGS	12	1	True	lime	460	[1035 1515  405  675]	[405 885 405 675]
75.325	2.0	418065	420711	ShowFixation	VGS	13	1	True	lime	600	[1350 1830  405  675]	[ 90 570 405 675]
77.971	0.2	420711	420930	BlankScreen	VGS	13	1	True	lime	600	[1350 1830  405  675]	[ 90 570 405 675]
78.19	1.0	420930	421953	ELCue	VGS	13	1	True	lime	600	[1350 1830  405  675]	[ 90 570 405 675]
79.632	2.0	422372	424999	ShowFixation	VGS	14	1	True	lime	460	[1035 1515  405  675]	[405 885 405 675]
82.259	0.2	424999	425234	BlankScreen	VGS	14	1	True	lime	460	[1035 1515  405  675]	[405 885 405 675]
82.494	1.0	425234	426271	ELCue	VGS	14	1	True	lime	460	[1035 1515  405  675]	[405 885 405 675]
83.933	6.0	426673	433303	ShowFixation	ANTI	15	1	True	red	40	[1350 1830  405  675]	[ 90 570 405 675]
90.563	0.2	433303	433542	BlankScreen	ANTI	15	1	True	red	40	[1350 1830  405  675]	[ 90 570 405 675]
90.802	1.0	433542	434583	ELCue	ANTI	15	1	True	red	40	[1350 1830  405  675]	[ 90 570 405 675]
92.261	6.0	435001	441628	ShowFixation	ANTI	16	1	True	red	180	[1035 1515  405  675]	[405 885 405 675]
98.888	0.2	441628	441867	BlankScreen	ANTI	16	1	True	red	180	[1035 1515  405  675]	[405 885 405 675]
99.127	1.0	441867	442908	ELCue	ANTI	16	1	True	red	180	[1035 1515  405  675]	[405 885 405 675]
127.143	2.0	469883	471912	ShowFixation	ANTI	17	2	False	red	40	[1350 1830  405  675]	[ 90 570 405 675]
129.172	0.2	471912	472147	BlankScreen	ANTI	17	2	False	red	40	[1350 1830  405  675]	[ 90 570 405 675]
129.407	1.0	472147	473147	ELCue	ANTI	17	2	False	red	40	[1350 1830  405  675]	[ 90 570 405 675]
130.828	6.0	473568	479599	ShowFixation	VGS	18	2	False	lime	40	[ 90 570 405 675]	[1350 1830  405  675]
136.859	0.2	479599	479838	BlankScreen	VGS	18	2	False	lime	40	[ 90 570 405 675]	[1350 1830  405  675]
137.098	1.0	479838	480838	ELCue	VGS	18	2	False	lime	40	[ 90 570 405 675]	[1350 1830  405  675]
138.522	2.0	481262	483290	ShowFixation	ANTI	19	2	False	red	180	[1035 1515  405  675]	[405 885 405 675]
140.55	0.2	483290	483525	BlankScreen	ANTI	19	2	False	red	180	[1035 1515  405  675]	[405 885 405 675]
140.785	1.0	483525	484525	ELCue	ANTI	19	2	False	red	180	[1035 1515  405  675]	[405 885 405 675]
142.212	6.0	484952	490977	ShowFixation	ANTI	20	2	False	red	40	[1350 1830  405  675]	[ 90 570 405 675]
148.238	0.2	490978	491216	BlankScreen	ANTI	20	2	False	red	40	[1350 1830  405  675]	[ 90 570 405 675]
148.477	1.0	491217	492217	ELCue	ANTI	20	2	False	red	40	[1350 1830  405  675]	[ 90 570 405 675]
149.9	2.0	492640	494669	ShowFixation	ANTI	21	2	False	red	600	[ 90 570 405 675]	[1350 1830  405  675]
151.929	0.2	494669	494903	BlankScreen	ANTI	21	2	False	red	600	[ 90 570 405 675]	[1350 1830  405  675]
152.163	1.0	494903	495903	ELCue	ANTI	21	2	False	red	600	[ 90 570 405 675]	[1350 1830  405  675]
153.582	6.0	496322	502356	ShowFixation	ANTI	22	2	False	red	600	[ 90 570 405 675]	[1350 1830  405  675]
159.616	0.2	502356	502595	BlankScreen	ANTI	22	2	False	red	600	[ 90 570 405 675]	[1350 1830  405  675]
159.855	1.0	502595	503595	ELCue	ANTI	22	2	False	red	600	[ 90 570 405 675]	[1350 1830  405  675]
161.282	2.0	504022	506063	ShowFixation	ANTI	23	2	False	red	460	[405 885 405 675]	[1035 1515  405  675]
163.323	0.2	506063	506298	BlankScreen	ANTI	23	2	False	red	460	[405 885 405 675]	[1035 1515  405  675]
163.558	1.0	506298	507298	ELCue	ANTI	23	2	False	red	460	[405 885 405 675]	[1035 1515  405  675]
164.976	6.0	507716	513750	ShowFixation	VGS	24	2	False	lime	600	[1350 1830  405  675]	[ 90 570 405 675]
171.01	0.2	513750	513989	BlankScreen	VGS	24	2	False	lime	600	[1350 1830  405  675]	[ 90 570 405 675]
171.249	1.0	513989	514989	ELCue	VGS	24	2	False	lime	600	[1350 1830  405  675]	[ 90 570 405 675]
172.671	6.0	515411	521441	ShowFixation	VGS	25	2	False	lime	600	[1350 1830  405  675]	[ 90 570 405 675]
178.701	0.2	521441	521680	BlankScreen	VGS	25	2	False	lime	600	[1350 1830  405  675]	[ 90 570 405 675]
178.94	1.0	521680	522680	ELCue	VGS	25	2	False	lime	600	[1350 1830  405  675]	[ 90 570 405 675]
180.367	6.0	523107	529132	ShowFixation	VGS	26	2	False	lime	460	[1035 1515  405  675]	[405 885 405 675]
186.392	0.2	529132	529371	BlankScreen	VGS	26	2	False	lime	460	[1035 1515  405  675]	[405 885 405 675]
186.631	1.0	529371	530371	ELCue	VGS	26	2	False	lime	460	[1035 1515  405  675]	[405 885 405 675]
188.048	6.0	530788	536823	ShowFixation	ANTI	27	2	False	red	460	[405 885 405 675]	[1035 1515  405  675]
194.083	0.2	536823	537062	BlankScreen	ANTI	27	2	False	red	460	[405 885 405 675]	[1035 1515  405  675]
194.322	1.0	537062	538062	ELCue	ANTI	27	2	False	red	460	[405 885 405 675]	[1035 1515  405  675]
195.743	6.0	538483	544514	ShowFixation	ANTI	28	2	False	red	600	[ 90 570 405 675]	[1350 1830  405  675]
201.774	0.2	544514	544753	BlankScreen	ANTI	28	2	False	red	600	[ 90 570 405 675]	[1350 1830  405  675]
202.013	1.0	544753	545753	ELCue	ANTI	28	2	False	red	600	[ 90 570 405 675]	[1350 1830  405  675]
203.432	2.0	546172	548205	ShowFixation	VGS	29	2	False	lime	180	[405 885 405 675]	[1035 1515  405  675]
205.465	0.2	548205	548440	BlankScreen	VGS	29	2	False	lime	180	[405 885 405 675]	[1035 1515  405  675]
205.7	1.0	548440	549440	ELCue	VGS	29	2	False	lime	180	[405 885 405 675]	[1035 1515  405  675]
207.125	6.0	549865	555892	ShowFixation	VGS	30	2	False	lime	40	[ 90 570 405 675]	[1350 1830  405  675]
213.152	0.2	555892	556131	BlankScreen	VGS	30	2	False	lime	40	[ 90 570 405 675]	[1350 1830  405  675]
213.391	1.0	556131	557131	ELCue	VGS	30	2	False	lime	40	[ 90 570 405 675]	[1350 1830  405  675]
214.813	6.0	557553	563583	ShowFixation	ANTI	31	2	False	red	180	[1035 1515  405  675]	[405 885 405 675]
220.843	0.2	563583	563822	BlankScreen	ANTI	31	2	False	red	180	[1035 1515  405  675]	[405 885 405 675]
221.082	1.0	563822	564822	ELCue	ANTI	31	2	False	red	180	[1035 1515  405  675]	[405 885 405 675]
222.506	6.0	565246	571274	ShowFixation	VGS	32	2	False	lime	180	[405 885 405 675]	[1035 1515  405  675]
228.534	0.2	571274	571513	BlankScreen	VGS	32	2	False	lime	180	[405 885 405 675]	[1035 1515  405  675]
228.773	1.0	571513	572513	ELCue	VGS	32	2	False	lime	180	[405 885 405 675]	[1035 1515  405  675]
230.191	2.0	572931	574964	ShowFixation	VGS	33	2	False	lime	180	[405 885 405 675]	[1035 1515  405  675]
232.224	0.2	574964	575200	BlankScreen	VGS	33	2	False	lime	180	[405 885 405 675]	[1035 1515  405  675]
232.46	1.0	575200	576200	ELCue	VGS	33	2	False	lime	180	[405 885 405 675]	[1035 1515  405  675]
233.881	6.0	576621	582651	ShowFixation	ANTI	34	2	False	red	460	[405 885 405 675]	[1035 1515  405  675]
239.911	0.2	582651	582891	BlankScreen	ANTI	34	2	False	red	460	[405 885 405 675]	[1035 1515  405  675]
240.151	1.0	582891	583891	ELCue	ANTI	34	2	False	red	460	[405 885 405 675]	[1035 1515  405  675]
241.581	2.0	584321	586359	ShowFixation	ANTI	35	2	False	red	600	[ 90 570 405 675]	[1350 1830  405  675]
243.619	0.2	586359	586594	BlankScreen	ANTI	35	2	False	red	600	[ 90 570 405 675]	[1350 1830  405  675]
243.854	1.0	586594	587594	ELCue	ANTI	35	2	False	red	600	[ 90 570 405 675]	[1350 1830  405  675]
245.272	2.0	588012	590046	ShowFixation	ANTI	36	2	False	red	180	[1035 1515  405  675]	[405 885 405 675]
247.306	0.2	590046	590281	BlankScreen	ANTI	36	2	False	red	180	[1035 1515  405  675]	[405 885 405 675]
247.541	1.0	590281	591281	ELCue	ANTI	36	2	False	red	180	[1035 1515  405  675]	[405 885 405 675]
248.964	2.0	591704	593733	ShowFixation	VGS	37	2	False	lime	40	[ 90 570 405 675]	[1350 1830  405  675]
250.993	0.2	593733	593968	BlankScreen	VGS	37	2	False	lime	40	[ 90 570 405 675]	[1350 1830  405  675]
251.228	1.0	593968	594968	ELCue	VGS	37	2	False	lime	40	[ 90 570 405 675]	[1350 1830  405  675]
252.65	6.0	595390	601420	ShowFixation	ANTI	38	2	False	red	180	[1035 1515  405  675]	[405 885 405 675]
258.68	0.2	601420	601659	BlankScreen	ANTI	38	2	False	red	180	[1035 1515  405  675]	[405 885 405 675]
258.919	1.0	601659	602659	ELCue	ANTI	38	2	False	red	180	[1035 1515  405  675]	[405 885 405 675]
260.342	6.0	603082	609111	ShowFixation	VGS	39	2	False	lime	460	[1035 1515  405  675]	[405 885 405 675]
266.371	0.2	609111	609350	BlankScreen	VGS	39	2	False	lime	460	[1035 1515  405  675]	[405 885 405 675]
266.61	1.0	609350	610350	ELCue	VGS	39	2	False	lime	460	[1035 1515  405  675]	[405 885 405 675]
268.027	6.0	610767	616802	ShowFixation	ANTI	40	2	False	red	40	[1350 1830  405  675]	[ 90 570 405 675]
274.062	0.2	616802	617041	BlankScreen	ANTI	40	2	False	red	40	[1350 1830  405  675]	[ 90 570 405 675]
274.301	1.0	617041	618041	ELCue	ANTI	40	2	False	red	40	[1350 1830  405  675]	[ 90 570 405 675]
275.726	2.0	618466	620493	ShowFixation	VGS	41	2	False	lime	460	[1035 1515  405  675]	[405 885 405 675]
277.753	0.2	620493	620728	BlankScreen	VGS	41	2	False	lime	460	[1035 1515  405  675]	[405 885 405 675]
277.988	1.0	620728	621728	ELCue	VGS	41	2	False	lime	460	[1035 1515  405  675]	[405 885 405 675]
279.412	2.0	622152	624180	ShowFixation	VGS	42	2	False	lime	600	[1350 1830  405  675]	[ 90 570 405 675]
281.44	0.2	624180	624415	BlankScreen	VGS	42	2	False	lime	600	[1350 1830  405  675]	[ 90 570 405 675]
281.675	1.0	624415	625415	ELCue	VGS	42	2	False	lime	600	[1350 1830  405  675]	[ 90 570 405 675]
283.102	2.0	625842	627867	ShowFixation	ANTI	43	2	False	red	460	[405 885 405 675]	[1035 1515  405  675]
285.127	0.2	627867	628102	BlankScreen	ANTI	43	2	False	red	460	[405 885 405 675]	[1035 1515  405  675]
285.362	1.0	628102	629102	ELCue	ANTI	43	2	False	red	460	[405 885 405 675]	[1035 1515  405  675]
286.786	2.0	629526	631554	ShowFixation	VGS	44	2	False	lime	600	[1350 1830  405  675]	[ 90 570 405 675]
288.815	0.2	631555	631789	BlankScreen	VGS	44	2	False	lime	600	[1350 1830  405  675]	[ 90 570 405 675]
289.049	1.0	631789	632789	ELCue	VGS	44	2	False	lime	600	[1350 1830  405  675]	[ 90 570 405 675]
290.475	6.0	633215	639241	ShowFixation	VGS	45	2	False	lime	180	[405 885 405 675]	[1035 1515  405  675]
296.501	0.2	639241	639481	BlankScreen	VGS	45	2	False	lime	180	[405 885 405 675]	[1035 1515  405  675]
296.741	1.0	639481	640481	ELCue	VGS	45	2	False	lime	180	[405 885 405 675]	[1035 1515  405  675]
298.163	2.0	640903	642932	ShowFixation	VGS	46	2	False	lime	40	[ 90 570 405 675]	[1350 1830  405  675]
300.193	0.2	642933	643167	BlankScreen	VGS	46	2	False	lime	40	[ 90 570 405 675]	[1350 1830  405  675]
300.427	1.0	643167	644167	ELCue	VGS	46	2	False	lime	40	[ 90 570 405 675]	[1350 1830  405  675]
301.845	2.0	644585	646620	ShowFixation	ANTI	47	2	False	red	40	[1350 1830  405  675]	[ 90 570 405 675]
303.88	0.2	646620	646855	BlankScreen	ANTI	47	2	False	red	40	[1350 1830  405  675]	[ 90 570 405 675]
304.115	1.0	646855	647855	ELCue	ANTI	47	2	False	red	40	[1350 1830  405  675]	[ 90 570 405 675]
305.52	2.0	648260	650290	ShowFixation	VGS	48	2	False	lime	460	[1035 1515  405  675]	[405 885 405 675]
307.55	0.2	650290	650525	BlankScreen	VGS	48	2	False	lime	460	[1035 1515  405  675]	[405 885 405 675]
307.785	1.0	650525	651525	ELCue	VGS	48	2	False	lime	460	[1035 1515  405  675]	[405 885 405 675]
390.178	2.0	732918	734957	ShowFixation	ANTI	49	3	False	red	600	[ 90 570 405 675]	[1350 1830  405  675]
392.217	0.2	734957	735192	BlankScreen	ANTI	49	3	False	red	600	[ 90 570 405 675]	[1350 1830  405  675]
392.452	1.0	735192	736192	ELCue	ANTI	49	3	False	red	600	[ 90 570 405 675]	[1350 1830  405  675]
393.871	6.0	736611	742644	ShowFixation	ANTI	50	3	False	red	460	[405 885 405 675]	[1035 1515  405  675]
399.904	0.2	742644	742883	BlankScreen	ANTI	50	3	False	red	460	[405 885 405 675]	[1035 1515  405  675]
400.143	1.0	742883	743883	ELCue	ANTI	50	3	False	red	460	[405 885 405 675]	[1035 1515  405  675]
401.563	6.0	744303	750335	ShowFixation	VGS	51	3	False	lime	40	[ 90 570 405 675]	[1350 1830  405  675]
407.595	0.2	750335	750574	BlankScreen	VGS	51	3	False	lime	40	[ 90 570 405 675]	[1350 1830  405  675]
407.834	1.0	750574	751574	ELCue	VGS	51	3	False	lime	40	[ 90 570 405 675]	[1350 1830  405  675]
409.254	6.0	751994	758025	ShowFixation	VGS	52	3	False	lime	460	[1035 1515  405  675]	[405 885 405 675]
415.285	0.2	758025	758265	BlankScreen	VGS	52	3	False	lime	460	[1035 1515  405  675]	[405 885 405 675]
415.525	1.0	758265	759265	ELCue	VGS	52	3	False	lime	460	[1035 1515  405  675]	[405 885 405 675]
416.945	2.0	759685	761716	ShowFixation	ANTI	53	3	False	red	460	[405 885 405 675]	[1035 1515  405  675]
418.976	0.2	761716	761952	BlankScreen	ANTI	53	3	False	red	460	[405 885 405 675]	[1035 1515  405  675]
419.212	1.0	761952	762952	ELCue	ANTI	53	3	False	red	460	[405 885 405 675]	[1035 1515  405  675]
420.636	2.0	763376	765403	ShowFixation	ANTI	54	3	False	red	40	[1350 1830  405  675]	[ 90 570 405 675]
422.663	0.2	765403	765639	BlankScreen	ANTI	54	3	False	red	40	[1350 1830  405  675]	[ 90 570 405 675]
422.899	1.0	765639	766639	ELCue	ANTI	54	3	False	red	40	[1350 1830  405  675]	[ 90 570 405 675]
424.317	2.0	767057	769090	ShowFixation	VGS	55	3	False	lime	460	[1035 1515  405  675]	[405 885 405 675]
426.35	0.2	769090	769326	BlankScreen	VGS	55	3	False	lime	460	[1035 1515  405  675]	[405 885 405 675]
426.586	1.0	769326	770326	ELCue	VGS	55	3	False	lime	460	[1035 1515  405  675]	[405 885 405 675]
428.011	2.0	770751	772777	ShowFixation	VGS	56	3	False	lime	180	[405 885 405 675]	[1035 1515  405  675]
430.037	0.2	772777	773013	BlankScreen	VGS	56	3	False	lime	180	[405 885 405 675]	[1035 1515  405  675]
430.273	1.0	773013	774013	ELCue	VGS	56	3	False	lime	180	[405 885 405 675]	[1035 1515  405  675]
431.658	2.0	774398	776431	ShowFixation	ANTI	57	3	False	red	40	[1350 1830  405  675]	[ 90 570 405 675]
433.691	0.2	776431	776666	BlankScreen	ANTI	57	3	False	red	40	[1350 1830  405  675]	[ 90 570 405 675]
433.926	1.0	776666	777666	ELCue	ANTI	57	3	False	red	40	[1350 1830  405  675]	[ 90 570 405 675]
435.35	2.0	778090	780118	ShowFixation	VGS	58	3	False	lime	600	[1350 1830  405  675]	[ 90 570 405 675]
437.379	0.2	780119	780353	BlankScreen	VGS	58	3	False	lime	600	[1350 1830  405  675]	[ 90 570 405 675]
437.613	1.0	780353	781353	ELCue	VGS	58	3	False	lime	600	[1350 1830  405  675]	[ 90 570 405 675]
439.038	6.0	781778	787805	ShowFixation	ANTI	59	3	False	red	600	[ 90 570 405 675]	[1350 1830  405  675]
445.065	0.2	787805	788044	BlankScreen	ANTI	59	3	False	red	600	[ 90 570 405 675]	[1350 1830  405  675]
445.305	1.0	788045	789045	ELCue	ANTI	59	3	False	red	600	[ 90 570 405 675]	[1350 1830  405  675]
446.722	2.0	789462	791496	ShowFixation	ANTI	60	3	False	red	460	[405 885 405 675]	[1035 1515  405  675]
448.757	0.2	791497	791731	BlankScreen	ANTI	60	3	False	red	460	[405 885 405 675]	[1035 1515  405  675]
448.992	1.0	791732	792732	ELCue	ANTI	60	3	False	red	460	[405 885 405 675]	[1035 1515  405  675]
450.411	6.0	793151	799183	ShowFixation	VGS	61	3	False	lime	180	[405 885 405 675]	[1035 1515  405  675]
456.444	0.2	799184	799423	BlankScreen	VGS	61	3	False	lime	180	[405 885 405 675]	[1035 1515  405  675]
456.683	1.0	799423	800423	ELCue	VGS	61	3	False	lime	180	[405 885 405 675]	[1035 1515  405  675]
458.104	6.0	800844	806875	ShowFixation	ANTI	62	3	False	red	40	[1350 1830  405  675]	[ 90 570 405 675]
464.135	0.2	806875	807114	BlankScreen	ANTI	62	3	False	red	40	[1350 1830  405  675]	[ 90 570 405 675]
464.374	1.0	807114	808114	ELCue	ANTI	62	3	False	red	40	[1350 1830  405  675]	[ 90 570 405 675]
465.796	6.0	808536	814566	ShowFixation	ANTI	63	3	False	red	180	[1035 1515  405  675]	[405 885 405 675]
471.826	0.2	814566	814805	BlankScreen	ANTI	63	3	False	red	180	[1035 1515  405  675]	[405 885 405 675]
472.065	1.0	814805	815805	ELCue	ANTI	63	3	False	red	180	[1035 1515  405  675]	[405 885 405 675]
473.488	2.0	816228	818257	ShowFixation	VGS	64	3	False	lime	600	[1350 1830  405  675]	[ 90 570 405 675]
475.517	0.2	818257	818492	BlankScreen	VGS	64	3	False	lime	600	[1350 1830  405  675]	[ 90 570 405 675]
475.752	1.0	818492	819492	ELCue	VGS	64	3	False	lime	600	[1350 1830  405  675]	[ 90 570 405 675]
477.169	6.0	819909	825943	ShowFixation	VGS	65	3	False	lime	460	[1035 1515  405  675]	[405 885 405 675]
483.203	0.2	825943	826183	BlankScreen	VGS	65	3	False	lime	460	[1035 1515  405  675]	[405 885 405 675]
483.443	1.0	826183	827183	ELCue	VGS	65	3	False	lime	460	[1035 1515  405  675]	[405 885 405 675]
484.866	2.0	827606	829634	ShowFixation	VGS	66	3	False	lime	460	[1035 1515  405  675]	[405 885 405 675]
486.894	0.2	829634	829870	BlankScreen	VGS	66	3	False	lime	460	[1035 1515  405  675]	[405 885 405 675]
487.13	1.0	829870	830870	ELCue	VGS	66	3	False	lime	460	[1035 1515  405  675]	[405 885 405 675]
488.547	6.0	831287	837321	ShowFixation	VGS	67	3	False	lime	180	[405 885 405 675]	[1035 1515  405  675]
494.581	0.2	837321	837561	BlankScreen	VGS	67	3	False	lime	180	[405 885 405 675]	[1035 1515  405  675]
494.821	1.0	837561	838561	ELCue	VGS	67	3	False	lime	180	[405 885 405 675]	[1035 1515  405  675]
496.245	6.0	838985	845012	ShowFixation	VGS	68	3	False	lime	600	[1350 1830  405  675]	[ 90 570 405 675]
502.272	0.2	845012	845252	BlankScreen	VGS	68	3	False	lime	600	[1350 1830  405  675]	[ 90 570 405 675]
502.512	1.0	845252	846252	ELCue	VGS	68	3	False	lime	600	[1350 1830  405  675]	[ 90 570 405 675]
503.932	6.0	846672	852703	ShowFixation	ANTI	69	3	False	red	180	[1035 1515  405  675]	[405 885 405 675]
509.963	0.2	852703	852943	BlankScreen	ANTI	69	3	False	red	180	[1035 1515  405  675]	[405 885 405 675]
510.203	1.0	852943	853943	ELCue	ANTI	69	3	False	red	180	[1035 1515  405  675]	[405 885 405 675]
511.621	6.0	854361	860394	ShowFixation	ANTI	70	3	False	red	600	[ 90 570 405 675]	[1350 1830  405  675]
517.654	0.2	860394	860633	BlankScreen	ANTI	70	3	False	red	600	[ 90 570 405 675]	[1350 1830  405  675]
517.893	1.0	860633	861633	ELCue	ANTI	70	3	False	red	600	[ 90 570 405 675]	[1350 1830  405  675]
519.308	6.0	862048	868085	ShowFixation	VGS	71	3	False	lime	600	[1350 1830  405  675]	[ 90 570 405 675]
525.345	0.2	868085	868324	BlankScreen	VGS	71	3	False	lime	600	[1350 1830  405  675]	[ 90 570 405 675]
525.584	1.0	868324	869324	ELCue	VGS	71	3	False	lime	600	[1350 1830  405  675]	[ 90 570 405 675]
527.006	2.0	869746	871776	ShowFixation	ANTI	72	3	False	red	180	[1035 1515  405  675]	[405 885 405 675]
529.036	0.2	871776	872011	BlankScreen	ANTI	72	3	False	red	180	[1035 1515  405  675]	[405 885 405 675]
529.271	1.0	872011	873011	ELCue	ANTI	72	3	False	red	180	[1035 1515  405  675]	[405 885 405 675]
530.695	2.0	873435	875463	ShowFixation	VGS	73	3	False	lime	40	[ 90 570 405 675]	[1350 1830  405  675]
532.723	0.2	875463	875698	BlankScreen	VGS	73	3	False	lime	40	[ 90 570 405 675]	[1350 1830  405  675]
532.958	1.0	875698	876698	ELCue	VGS	73	3	False	lime	40	[ 90 570 405 675]	[1350 1830  405  675]
534.378	2.0	877118	879150	ShowFixation	ANTI	74	3	False	red	180	[1035 1515  405  675]	[405 885 405 675]
536.41	0.2	879150	879385	BlankScreen	ANTI	74	3	False	red	180	[1035 1515  405  675]	[405 885 405 675]
536.645	1.0	879385	880385	ELCue	ANTI	74	3	False	red	180	[1035 1515  405  675]	[405 885 405 675]
538.067	2.0	880807	882837	ShowFixation	VGS	75	3	False	lime	180	[405 885 405 675]	[1035 1515  405  675]
540.097	0.2	882837	883072	BlankScreen	VGS	75	3	False	lime	180	[405 885 405 675]	[1035 1515  405  675]
540.332	1.0	883072	884072	ELCue	VGS	75	3	False	lime	180	[405 885 405 675]	[1035 1515  405  675]
541.758	6.0	884498	890524	ShowFixation	ANTI	76	3	False	red	40	[1350 1830  405  675]	[ 90 570 405 675]
547.784	0.2	890524	890763	BlankScreen	ANTI	76	3	False	red	40	[1350 1830  405  675]	[ 90 570 405 675]
548.023	1.0	890763	891763	ELCue	ANTI	76	3	False	red	40	[1350 1830  405  675]	[ 90 570 405 675]
549.447	6.0	892187	898215	ShowFixation	ANTI	77	3	False	red	460	[405 885 405 675]	[1035 1515  405  675]
555.475	0.2	898215	898454	BlankScreen	ANTI	77	3	False	red	460	[405 885 405 675]	[1035 1515  405  675]
555.714	1.0	898454	899454	ELCue	ANTI	77	3	False	red	460	[405 885 405 675]	[1035 1515  405  675]
557.135	2.0	899875	901906	ShowFixation	VGS	78	3	False	lime	40	[ 90 570 405 675]	[1350 1830  405  675]
559.166	0.2	901906	902141	BlankScreen	VGS	78	3	False	lime	40	[ 90 570 405 675]	[1350 1830  405  675]
559.401	1.0	902141	903141	ELCue	VGS	78	3	False	lime	40	[ 90 570 405 675]	[1350 1830  405  675]
560.821	2.0	903561	905593	ShowFixation	ANTI	79	3	False	red	600	[ 90 570 405 675]	[1350 1830  405  675]
562.853	0.2	905593	905828	BlankScreen	ANTI	79	3	False	red	600	[ 90 570 405 675]	[1350 1830  405  675]
563.088	1.0	905828	906828	ELCue	ANTI	79	3	False	red	600	[ 90 570 405 675]	[1350 1830  405  675]
564.51	6.0	907250	913280	ShowFixation	VGS	80	3	False	lime	40	[ 90 570 405 675]	[1350 1830  405  675]
570.54	0.2	913280	913519	BlankScreen	VGS	80	3	False	lime	40	[ 90 570 405 675]	[1350 1830  405  675]
570.779	1.0	913519	914519	ELCue	VGS	80	3	False	lime	40	[ 90 570 405 675]	[1350 1830  405  675]
607.686	2.0	950426	952457	ShowFixation	ANTI	81	4	False	red	600	[ 90 570 405 675]	[1350 1830  405  675]
609.717	0.2	952457	952692	BlankScreen	ANTI	81	4	False	red	600	[ 90 570 405 675]	[1350 1830  405  675]
609.952	1.0	952692	953692	ELCue	ANTI	81	4	False	red	600	[ 90 570 405 675]	[1350 1830  405  675]
611.379	2.0	954119	956160	ShowFixation	VGS	82	4	False	lime	460	[1035 1515  405  675]	[405 885 405 675]
613.42	0.2	956160	956396	BlankScreen	VGS	82	4	False	lime	460	[1035 1515  405  675]	[405 885 405 675]
613.656	1.0	956396	957396	ELCue	VGS	82	4	False	lime	460	[1035 1515  405  675]	[405 885 405 675]
615.074	2.0	957814	959847	ShowFixation	VGS	83	4	False	lime	180	[405 885 405 675]	[1035 1515  405  675]
617.107	0.2	959847	960083	BlankScreen	VGS	83	4	False	lime	180	[405 885 405 675]	[1035 1515  405  675]
617.343	1.0	960083	961083	ELCue	VGS	83	4	False	lime	180	[405 885 405 675]	[1035 1515  405  675]
618.765	6.0	961505	967534	ShowFixation	VGS	84	4	False	lime	600	[1350 1830  405  675]	[ 90 570 405 675]
624.794	0.2	967534	967773	BlankScreen	VGS	84	4	False	lime	600	[1350 1830  405  675]	[ 90 570 405 675]
625.033	1.0	967773	968773	ELCue	VGS	84	4	False	lime	600	[1350 1830  405  675]	[ 90 570 405 675]
626.454	2.0	969194	971225	ShowFixation	ANTI	85	4	False	red	40	[1350 1830  405  675]	[ 90 570 405 675]
628.485	0.2	971225	971460	BlankScreen	ANTI	85	4	False	red	40	[1350 1830  405  675]	[ 90 570 405 675]
628.72	1.0	971460	972460	ELCue	ANTI	85	4	False	red	40	[1350 1830  405  675]	[ 90 570 405 675]
630.144	6.0	972884	978912	ShowFixation	VGS	86	4	False	lime	40	[ 90 570 405 675]	[1350 1830  405  675]
636.172	0.2	978912	979151	BlankScreen	VGS	86	4	False	lime	40	[ 90 570 405 675]	[1350 1830  405  675]
636.411	1.0	979151	980151	ELCue	VGS	86	4	False	lime	40	[ 90 570 405 675]	[1350 1830  405  675]
637.834	2.0	980574	982603	ShowFixation	VGS	87	4	False	lime	600	[1350 1830  405  675]	[ 90 570 405 675]
639.863	0.2	982603	982838	BlankScreen	VGS	87	4	False	lime	600	[1350 1830  405  675]	[ 90 570 405 675]
640.098	1.0	982838	983838	ELCue	VGS	87	4	False	lime	600	[1350 1830  405  675]	[ 90 570 405 675]
641.518	6.0	984258	990290	ShowFixation	VGS	88	4	False	lime	600	[1350 1830  405  675]	[ 90 570 405 675]
647.55	0.2	990290	990529	BlankScreen	VGS	88	4	False	lime	600	[1350 1830  405  675]	[ 90 570 405 675]
647.789	1.0	990529	991529	ELCue	VGS	88	4	False	lime	600	[1350 1830  405  675]	[ 90 570 405 675]
649.206	2.0	991946	993981	ShowFixation	VGS	89	4	False	lime	180	[405 885 405 675]	[1035 1515  405  675]
651.241	0.2	993981	994216	BlankScreen	VGS	89	4	False	lime	180	[405 885 405 675]	[1035 1515  405  675]
651.476	1.0	994216	995216	ELCue	VGS	89	4	False	lime	180	[405 885 405 675]	[1035 1515  405  675]
652.899	6.0	995639	1001668	ShowFixation	ANTI	90	4	False	red	600	[ 90 570 405 675]	[1350 1830  405  675]
658.928	0.2	1001668	1001907	BlankScreen	ANTI	90	4	False	red	600	[ 90 570 405 675]	[1350 1830  405  675]
659.167	1.0	1001907	1002907	ELCue	ANTI	90	4	False	red	600	[ 90 570 405 675]	[1350 1830  405  675]
660.587	6.0	1003327	1009359	ShowFixation	ANTI	91	4	False	red	180	[1035 1515  405  675]	[405 885 405 675]
666.619	0.2	1009359	1009598	BlankScreen	ANTI	91	4	False	red	180	[1035 1515  405  675]	[405 885 405 675]
666.858	1.0	1009598	1010598	ELCue	ANTI	91	4	False	red	180	[1035 1515  405  675]	[405 885 405 675]
668.28	6.0	1011020	1017050	ShowFixation	VGS	92	4	False	lime	460	[1035 1515  405  675]	[405 885 405 675]
674.31	0.2	1017050	1017289	BlankScreen	VGS	92	4	False	lime	460	[1035 1515  405  675]	[405 885 405 675]
674.549	1.0	1017289	1018289	ELCue	VGS	92	4	False	lime	460	[1035 1515  405  675]	[405 885 405 675]
675.972	2.0	1018712	1020741	ShowFixation	ANTI	93	4	False	red	460	[405 885 405 675]	[1035 1515  405  675]
678.001	0.2	1020741	1020976	BlankScreen	ANTI	93	4	False	red	460	[405 885 405 675]	[1035 1515  405  675]
678.236	1.0	1020976	1021976	ELCue	ANTI	93	4	False	red	460	[405 885 405 675]	[1035 1515  405  675]
679.652	6.0	1022392	1028428	ShowFixation	VGS	94	4	False	lime	460	[1035 1515  405  675]	[405 885 405 675]
685.688	0.2	1028428	1028667	BlankScreen	VGS	94	4	False	lime	460	[1035 1515  405  675]	[405 885 405 675]
685.927	1.0	1028667	1029667	ELCue	VGS	94	4	False	lime	460	[1035 1515  405  675]	[405 885 405 675]
687.324	2.0	1030064	1032102	ShowFixation	ANTI	95	4	False	red	460	[405 885 405 675]	[1035 1515  405  675]
689.362	0.2	1032102	1032337	BlankScreen	ANTI	95	4	False	red	460	[405 885 405 675]	[1035 1515  405  675]
689.597	1.0	1032337	1033337	ELCue	ANTI	95	4	False	red	460	[405 885 405 675]	[1035 1515  405  675]
691.018	2.0	1033758	1035789	ShowFixation	VGS	96	4	False	lime	600	[1350 1830  405  675]	[ 90 570 405 675]
693.049	0.2	1035789	1036024	BlankScreen	VGS	96	4	False	lime	600	[1350 1830  405  675]	[ 90 570 405 675]
693.284	1.0	1036024	1037024	ELCue	VGS	96	4	False	lime	600	[1350 1830  405  675]	[ 90 570 405 675]
694.71	6.0	1037450	1043476	ShowFixation	ANTI	97	4	False	red	460	[405 885 405 675]	[1035 1515  405  675]
700.736	0.2	1043476	1043715	BlankScreen	ANTI	97	4	False	red	460	[405 885 405 675]	[1035 1515  405  675]
700.975	1.0	1043715	1044715	ELCue	ANTI	97	4	False	red	460	[405 885 405 675]	[1035 1515  405  675]
702.397	2.0	1045137	1047167	ShowFixation	ANTI	98	4	False	red	600	[ 90 570 405 675]	[1350 1830  405  675]
704.427	0.2	1047167	1047402	BlankScreen	ANTI	98	4	False	red	600	[ 90 570 405 675]	[1350 1830  405  675]
704.662	1.0	1047402	1048402	ELCue	ANTI	98	4	False	red	600	[ 90 570 405 675]	[1350 1830  405  675]
706.086	6.0	1048826	1054854	ShowFixation	ANTI	99	4	False	red	180	[1035 1515  405  675]	[405 885 405 675]
712.114	0.2	1054854	1055093	BlankScreen	ANTI	99	4	False	red	180	[1035 1515  405  675]	[405 885 405 675]
712.353	1.0	1055093	1056093	ELCue	ANTI	99	4	False	red	180	[1035 1515  405  675]	[405 885 405 675]
713.777	6.0	1056517	1062545	ShowFixation	VGS	100	4	False	lime	180	[405 885 405 675]	[1035 1515  405  675]
719.805	0.2	1062545	1062784	BlankScreen	VGS	100	4	False	lime	180	[405 885 405 675]	[1035 1515  405  675]
720.044	1.0	1062784	1063784	ELCue	VGS	100	4	False	lime	180	[405 885 405 675]	[1035 1515  405  675]
721.464	2.0	1064204	1066236	ShowFixation	VGS	101	4	False	lime	460	[1035 1515  405  675]	[405 885 405 675]
723.496	0.2	1066236	1066471	BlankScreen	VGS	101	4	False	lime	460	[1035 1515  405  675]	[405 885 405 675]
723.731	1.0	1066471	1067471	ELCue	VGS	101	4	False	lime	460	[1035 1515  405  675]	[405 885 405 675]
725.151	2.0	1067891	1069922	ShowFixation	VGS	102	4	False	lime	40	[ 90 570 405 675]	[1350 1830  405  675]
727.182	0.2	1069922	1070158	BlankScreen	VGS	102	4	False	lime	40	[ 90 570 405 675]	[1350 1830  405  675]
727.418	1.0	1070158	1071158	ELCue	VGS	102	4	False	lime	40	[ 90 570 405 675]	[1350 1830  405  675]
728.843	6.0	1071583	1077609	ShowFixation	ANTI	103	4	False	red	40	[1350 1830  405  675]	[ 90 570 405 675]
734.869	0.2	1077609	1077849	BlankScreen	ANTI	103	4	False	red	40	[1350 1830  405  675]	[ 90 570 405 675]
735.109	1.0	1077849	1078849	ELCue	ANTI	103	4	False	red	40	[1350 1830  405  675]	[ 90 570 405 675]
736.532	2.0	1079272	1081300	ShowFixation	ANTI	104	4	False	red	180	[1035 1515  405  675]	[405 885 405 675]
738.561	0.2	1081301	1081536	BlankScreen	ANTI	104	4	False	red	180	[1035 1515  405  675]	[405 885 405 675]
738.797	1.0	1081537	1082537	ELCue	ANTI	104	4	False	red	180	[1035 1515  405  675]	[405 885 405 675]
740.217	6.0	1082957	1088987	ShowFixation	ANTI	105	4	False	red	600	[ 90 570 405 675]	[1350 1830  405  675]
746.248	0.2	1088988	1089227	BlankScreen	ANTI	105	4	False	red	600	[ 90 570 405 675]	[1350 1830  405  675]
746.487	1.0	1089227	1090227	ELCue	ANTI	105	4	False	red	600	[ 90 570 405 675]	[1350 1830  405  675]
747.91	2.0	1090650	1092679	ShowFixation	VGS	106	4	False	lime	40	[ 90 570 405 675]	[1350 1830  405  675]
749.939	0.2	1092679	1092915	BlankScreen	VGS	106	4	False	lime	40	[ 90 570 405 675]	[1350 1830  405  675]
750.175	1.0	1092915	1093915	ELCue	VGS	106	4	False	lime	40	[ 90 570 405 675]	[1350 1830  405  675]
751.594	6.0	1094334	1100366	ShowFixation	ANTI	107	4	False	red	40	[1350 1830  405  675]	[ 90 570 405 675]
757.626	0.2	1100366	1100606	BlankScreen	ANTI	107	4	False	red	40	[1350 1830  405  675]	[ 90 570 405 675]
757.866	1.0	1100606	1101606	ELCue	ANTI	107	4	False	red	40	[1350 1830  405  675]	[ 90 570 405 675]
759.283	2.0	1102023	1104057	ShowFixation	ANTI	108	4	False	red	180	[1035 1515  405  675]	[405 885 405 675]
761.317	0.2	1104057	1104293	BlankScreen	ANTI	108	4	False	red	180	[1035 1515  405  675]	[405 885 405 675]
761.553	1.0	1104293	1105293	ELCue	ANTI	108	4	False	red	180	[1035 1515  405  675]	[405 885 405 675]
762.974	2.0	1105714	1107744	ShowFixation	ANTI	109	4	False	red	40	[1350 1830  405  675]	[ 90 570 405 675]
765.004	0.2	1107744	1107979	BlankScreen	ANTI	109	4	False	red	40	[1350 1830  405  675]	[ 90 570 405 675]
765.239	1.0	1107979	1108979	ELCue	ANTI	109	4	False	red	40	[1350 1830  405  675]	[ 90 570 405 675]
766.658	6.0	1109398	1115431	ShowFixation	VGS	110	4	False	lime	180	[405 885 405 675]	[1035 1515  405  675]
772.691	0.2	1115431	1115670	BlankScreen	VGS	110	4	False	lime	180	[405 885 405 675]	[1035 1515  405  675]
772.93	1.0	1115670	1116670	ELCue	VGS	110	4	False	lime	180	[405 885 405 675]	[1035 1515  405  675]
774.348	6.0	1117088	1123122	ShowFixation	ANTI	111	4	False	red	460	[405 885 405 675]	[1035 1515  405  675]
780.382	0.2	1123122	1123361	BlankScreen	ANTI	111	4	False	red	460	[405 885 405 675]	[1035 1515  405  675]
780.621	1.0	1123361	1124361	ELCue	ANTI	111	4	False	red	460	[405 885 405 675]	[1035 1515  405  675]
782.072	6.0	1124812	1130846	ShowFixation	VGS	112	4	False	lime	40	[ 90 570 405 675]	[1350 1830  405  675]
788.106	0.2	1130846	1131086	BlankScreen	VGS	112	4	False	lime	40	[ 90 570 405 675]	[1350 1830  405  675]
788.346	1.0	1131086	1132086	ELCue	VGS	112	4	False	lime	40	[ 90 570 405 675]	[1350 1830  405  675]
